Time (s),Gyroscope X (deg/s),Gyroscope Y (deg/s),Gyroscope Z (deg/s),Accelerometer X (g),Accelerometer Y (g),Accelerometer Z (g),Magnetometer X (uT),Magnetometer Y (uT),Magnetometer Z (uT),Barometer (hPa)
0.000000000,-0.01029784,-0.02723977,-0.04235629,-0.3917952,0.04580314,0.9066926,33.19985,-8.640553,-45.56503,986.1089
0.004917145,0.1750354,0.03204759,-0.04231054,-0.3927632,0.04481037,0.9071543,33.19985,-8.640553,-45.56503,986.1089
0.009835243,0.2985089,0.1504377,0.07959036,-0.3903868,0.0454469,0.9003577,33.19985,-8.640553,-45.56503,986.1089
0.014752388,0.05115433,-0.2642321,0.01864151,-0.3913381,0.04731515,0.9043097,33.19985,-8.640553,-45.56503,986.1055
0.019669533,0.236546,0.091239,-0.04232647,-0.3907548,0.04135266,0.9104257,33.94374,-9.354669,-46.35207,986.1055
0.024587154,-0.07255165,-0.02720993,0.1404733,-0.390361,0.04250425,0.9012342,33.94374,-9.354669,-46.35207,986.1055
0.029504299,0.1128789,-0.08640733,-0.1033444,-0.3927846,0.04195842,0.9031787,33.94374,-9.354669,-46.35207,986.1055
0.034421444,0.1127886,-0.3233224,0.14045,-0.3962433,0.04488823,0.901359,33.94374,-9.354669,-46.35207,986.1055
0.039339066,0.1127177,0.0322231,0.07946287,-0.3873796,0.04581575,0.9081134,33.94374,-9.354669,-46.35207,986.1055
0.076219082,0.05028937,-0.1452744,0.07910844,-0.3888622,0.04438557,0.905652,33.56427,-8.618211,-46.3304,986.1082
0.081136704,0.1120204,0.03249738,-0.04279641,-0.3898405,0.04775236,0.9077101,33.56427,-8.618211,-46.3304,986.1082
0.086053848,0.2973351,-0.02671889,0.0181293,-0.3907486,0.03941207,0.9098779,33.56427,-8.618211,-46.3304,986.1082
0.167190552,-0.1361971,0.09191041,-0.1043704,-0.391304,0.04291026,0.9051393,33.18953,-7.894507,-45.92564,986.1014
0.172107697,-0.1979907,0.09185278,0.01756943,-0.3882831,0.04084203,0.9128167,34.31199,-8.624549,-46.32878,986.1014
0.177025795,-0.01246192,0.03258056,0.1394518,-0.3903577,0.04442671,0.9027524,34.31199,-8.624549,-46.32878,986.0997
0.181942940,0.04928911,-0.08583152,0.01747078,-0.3932413,0.04285628,0.9070956,34.31199,-8.624549,-46.32878,986.0997
0.186860085,-0.07430598,-0.02661898,0.01742154,-0.3947383,0.04482894,0.905229,34.31199,-8.624549,-46.32878,986.0997
0.191777229,0.0492854,-0.02663944,0.01744892,-0.393748,0.04433224,0.9061759,34.31199,-8.624549,-46.32878,986.0997
0.196694851,-0.07432909,-0.2043032,0.01743799,-0.3863866,0.04483162,0.9090447,34.31199,-8.624549,-46.32878,986.0997
0.204070568,0.111126,-0.02648597,-0.04353475,-0.3854443,0.04539138,0.9056562,34.31199,-8.624549,-46.32878,986.0997
0.208988190,-0.01254676,-0.08570235,0.07836685,-0.3888356,0.04047716,0.906012,34.31199,-8.624549,-46.32878,986.0997
0.213905335,-0.01253886,0.03281755,0.261129,-0.3961094,0.04270276,0.9139116,34.31199,-8.624549,-46.32878,986.0997
0.218823433,0.1110525,0.03285281,0.2000661,-0.3952692,0.04394039,0.9003495,33.19513,-8.627797,-45.94812,986.1008
0.223740578,0.1728037,-0.02638233,0.1390224,-0.3917654,0.04381718,0.9085709,33.19513,-8.627797,-45.94812,986.1008
0.228657723,0.1109131,-0.1448132,0.01711815,-0.3874095,0.0478017,0.9062352,33.19513,-8.627797,-45.94812,986.1008
0.233574867,0.1107851,0.1514244,0.07800625,-0.3892938,0.04330655,0.9109618,33.19513,-8.627797,-45.94812,986.1008
0.238492489,0.04893348,0.03286321,0.2607495,-0.3903112,0.04530178,0.908121,33.19513,-8.627797,-45.94812,986.1008
0.243409634,0.04892216,-0.1448379,0.07781255,-0.3893363,0.04338817,0.906595,33.19513,-8.627797,-45.94812,986.1008
0.248326778,-0.0129489,0.2106512,0.07780191,-0.3908232,0.04437693,0.9051823,33.19513,-8.627797,-45.94812,986.1008
0.295042038,0.04858115,0.092249,0.01651636,-0.3907373,0.04324792,0.9133995,33.56899,-8.630966,-45.94731,986.1008
0.299959183,0.1721341,-0.1446853,0.07738569,-0.3937534,0.04530708,0.9062072,33.56899,-8.630966,-45.94731,986.0956
0.304877281,0.04844249,-0.1446316,0.1382551,-0.3912744,0.04429995,0.9090677,33.56899,-8.630966,-45.94731,986.0956
0.309794426,-0.07519086,0.03313975,-0.04464322,-0.3951741,0.04616888,0.9115874,33.56899,-8.630966,-45.94731,986.0956
0.314711571,0.2955682,-0.1446174,0.07727826,-0.3874187,0.04444419,0.9032144,33.56899,-8.630966,-45.94731,986.0956
0.319628716,-0.0135278,0.0331167,0.138186,-0.3922316,0.04473317,0.9115173,32.81577,-8.609745,-46.39586,986.0956
0.324546337,0.1101031,0.0923289,0.01628232,-0.3883313,0.04527414,0.9105315,32.81577,-8.609745,-46.39586,986.0956
0.329463482,-0.07537051,0.09228946,0.01625296,-0.3878722,0.04726451,0.9086494,32.81577,-8.609745,-46.39586,986.0956
0.336839199,0.1718676,-0.1446738,0.1381311,-0.3931843,0.0393718,0.9108676,32.81577,-8.609745,-46.39586,986.0939
0.341756821,0.1717791,0.09233048,0.01618913,-0.3907353,0.04372627,0.9139003,32.81577,-8.609745,-46.39586,986.0939
0.346674442,0.1716323,0.1515055,0.07709694,-0.3932928,0.04536592,0.9032921,32.81577,-8.609745,-46.39586,986.0939
0.351592064,0.109723,-0.144699,0.1988845,-0.3897814,0.04137059,0.9099327,32.81577,-8.609745,-46.39586,986.0939
0.356509209,0.2332764,0.0330724,0.07688528,-0.3917316,0.04278793,0.9114508,32.81577,-8.609745,-46.39586,986.0939
0.361426354,0.1712896,0.03307025,0.1377741,-0.3918607,0.04496433,0.8993832,32.81577,-8.609745,-46.39586,986.0939
0.366343975,0.1093805,0.03304945,0.07680785,-0.3931927,0.04420969,0.9129649,33.19513,-8.627797,-45.94812,986.0939
0.371261120,0.1092924,-0.2039034,0.1376968,-0.3942587,0.04485151,0.9042547,33.19513,-8.627797,-45.94812,986.0939
0.376178265,-0.0143792,0.03308234,0.01575512,-0.3912533,0.04136638,0.9094591,33.19513,-8.627797,-45.94812,986.0922
0.381095886,0.1709954,-0.1445817,0.2594746,-0.3912498,0.03991319,0.9089269,33.19513,-8.627797,-45.94812,986.0922
0.386013508,-0.1380416,0.03309658,0.07650016,-0.3927435,0.04380833,0.9085786,33.19513,-8.627797,-45.94812,986.0922
0.390931130,0.04744953,-0.2629963,0.1983264,-0.392233,0.04666471,0.9125502,33.19513,-8.627797,-45.94812,986.0922
0.395848274,-0.07620262,-0.08520645,-0.04550847,-0.3917395,0.04087453,0.9094473,33.19513,-8.627797,-45.94812,986.0922
0.400765419,0.04742878,-0.02593853,0.1373316,-0.3907781,0.04718354,0.9115839,33.19513,-8.627797,-45.94812,986.0922
0.408141613,-0.07610234,0.09251469,0.07632244,-0.3942229,0.04430061,0.9076354,33.19513,-8.627797,-45.94812,986.0922
0.413058758,0.109311,-0.08522385,-0.04558067,-0.3902704,0.04136616,0.9099366,33.19513,-8.627797,-45.94812,986.0922
0.417975903,-0.01434117,-0.08517028,0.1372211,-0.3917619,0.042364,0.9080387,33.56899,-8.630966,-45.94731,986.0889
0.422893047,-0.01431275,-0.02590236,-0.04563827,-0.3913455,0.04781164,0.9038401,33.56899,-8.630966,-45.94731,986.0889
0.427811146,-0.01430379,-0.02588609,-0.04564787,-0.3897353,0.03983578,0.9137673,33.56899,-8.630966,-45.94731,986.0889
0.432728291,0.2328917,0.03330735,0.07619763,-0.3913055,0.04484178,0.9061722,33.56899,-8.630966,-45.94731,986.0889
0.437645912,0.1091618,0.2702372,0.07620717,-0.3913043,0.0462859,0.9071897,33.56899,-8.630966,-45.94731,986.0889
0.442563057,0.1708947,0.03313534,0.1370964,-0.3927052,0.04614566,0.9139941,33.56899,-8.630966,-45.94731,986.0889
0.447480202,0.1708068,0.03318902,0.07609235,-0.3931911,0.03890251,0.9098816,33.56899,-8.630966,-45.94731,986.0889
0.452397823,0.3560651,0.1516342,0.1369625,-0.390807,0.04482807,0.9071388,33.56899,-8.630966,-45.94731,986.0889
0.457314968,0.170437,-0.02616015,0.07595848,-0.390744,0.04277865,0.9124134,33.56899,-8.630966,-45.94731,986.0895
0.462232113,0.04672702,0.0330707,0.1977659,-0.389789,0.04524272,0.9115136,33.56899,-8.630966,-45.94731,986.0895
0.467150211,0.2320632,0.09226426,0.0149451,-0.3888518,0.04002602,0.9040556,33.56899,-8.630966,-45.94731,986.0895
0.474525929,0.1701013,0.09223317,0.01491185,-0.3918062,0.04775281,0.9067552,33.56899,-8.630966,-45.94731,986.0895
0.479443550,0.1081735,-0.02623496,0.07585878,-0.3912242,0.04034619,0.9118539,33.56899,-8.630966,-45.94731,986.0895
0.484360695,0.2316891,-0.02621846,0.2585651,-0.3947139,0.04381784,0.9071385,33.56899,-8.630966,-45.94731,986.0895
0.489277840,0.1079794,-0.02627644,0.197523,-0.394245,0.04241443,0.9041764,33.56899,-8.630966,-45.94731,986.0895
0.494195461,0.2315339,0.03304753,0.07556289,-0.3913015,0.04579848,0.907174,33.56899,-8.630966,-45.94731,986.0895
0.499112606,0.1696064,0.03302674,-0.04641632,-0.3884341,0.04691777,0.9008743,33.56899,-8.630966,-45.94731,986.0861
0.504029751,0.1077373,-0.0262084,0.197304,-0.3922417,0.04571708,0.9110633,33.56899,-8.630966,-45.94731,986.0861
0.508947849,-0.07767661,-0.02621055,-0.1074674,-0.3946637,0.03986408,0.9099245,33.56899,-8.630966,-45.94731,986.0861
0.513864994,0.1077184,-0.1446975,0.07535419,-0.3918072,0.04293305,0.9036875,33.56899,-8.630966,-45.94731,986.0861
0.518782139,0.04584926,0.03307398,-0.1074663,-0.3893276,0.04433579,0.9080819,33.56147,-8.251565,-46.31916,986.0861
0.523699761,-0.07780189,-0.1446087,0.01447556,-0.3912776,0.0423775,0.9075496,33.56147,-8.251565,-46.31916,986.0861
0.528616905,0.1076126,0.2700575,0.01448562,-0.3893222,0.04336096,0.9080506,33.56147,-8.251565,-46.31916,986.0861
0.533534050,-0.07785943,0.03303013,-0.0464798,-0.3893644,0.04922811,0.907268,33.56147,-8.251565,-46.31916,986.0861
0.538451672,0.04575358,0.03300934,0.07544284,-0.3893018,0.04139315,0.9089584,33.56147,-8.251565,-46.31916,986.0897
0.545827389,0.2310954,-0.08533901,0.07540999,-0.3843449,0.03793478,0.9136622,33.56147,-8.251565,-46.31916,986.0897
0.550745487,0.2927518,-0.02608952,-0.1683477,-0.3936579,0.04078427,0.9133445,33.56147,-8.251565,-46.31916,986.0897
0.555662632,0.1072023,0.1515516,0.07548749,-0.3967047,0.04579516,0.9047905,33.56147,-8.251565,-46.31916,986.0897
0.560579777,0.2307379,-0.02613099,-0.04643422,-0.3927637,0.0424005,0.9056204,33.56147,-8.251565,-46.31916,986.0897
0.565497399,0.1069512,-0.02613314,0.258204,-0.391735,0.04424111,0.911983,32.81847,-8.257982,-45.93769,986.0897
0.570414543,0.2923079,-0.02615393,0.1971429,-0.3937413,0.04480152,0.9071621,32.81847,-8.257982,-45.93769,986.0897
0.575331688,0.1067393,0.09234709,0.01422681,-0.3922084,0.04227795,0.9124094,32.81847,-8.257982,-45.93769,986.0897
0.580249309,0.04489021,-0.2038388,0.01417955,-0.3922532,0.04525687,0.909592,32.81847,-8.257982,-45.93769,986.0864
0.585166454,0.1684455,-0.02606748,-0.04678563,-0.3942236,0.04526637,0.9081519,32.81847,-8.257982,-45.93769,986.0864
0.590084553,0.1065188,0.09239637,0.196954,-0.3937047,0.04328486,0.9100263,32.81847,-8.257982,-45.93769,986.0864
0.595001697,-0.07887491,-0.08532353,0.318762,-0.3878428,0.04286869,0.9089937,32.81847,-8.257982,-45.93769,986.0864
0.602377415,-0.07876177,0.1517076,0.0139483,-0.3883575,0.04243126,0.9060707,32.81847,-8.257982,-45.93769,986.0864
0.607295036,-0.01694966,0.03322067,-0.1078965,-0.3942468,0.0477216,0.9072598,32.81847,-8.257982,-45.93769,986.0864
0.612212181,0.1066639,0.1516286,0.01394987,-0.3922806,0.04096987,0.9041139,32.81847,-8.257982,-45.93769,986.0864
0.617129326,0.1683789,0.09230019,0.01396027,-0.3887602,0.0437077,0.9158257,33.56899,-8.630966,-45.94731,986.0873
0.622046947,0.04470903,-0.02620524,-0.0470431,-0.391212,0.03984064,0.9128086,33.56899,-8.630966,-45.94731,986.0873
0.626964092,-0.01713998,0.2107434,0.01386616,-0.3918597,0.0497841,0.902451,33.56899,-8.630966,-45.94731,986.0873
0.631882191,0.0445946,-0.08549836,-0.04704142,-0.3923333,0.05119658,0.9049278,33.56899,-8.630966,-45.94731,986.0873
0.636799335,-0.2026005,-0.2039107,0.1967367,-0.3873824,0.04630317,0.908129,33.56899,-8.630966,-45.94731,986.0873
0.641716480,-0.2024926,0.09228946,-0.1080343,-0.3902604,0.04375791,0.9124408,33.56899,-8.630966,-45.94731,986.0873
0.646633625,-0.1405834,0.0330915,0.01388866,-0.3878769,0.04727358,0.9081642,33.56899,-8.630966,-45.94731,986.0873
0.651551247,0.1066332,0.0923037,0.07479798,-0.3941701,0.04323509,0.9124562,33.56899,-8.630966,-45.94731,986.0873
0.656473160,-0.07877999,0.03306855,0.01381384,-0.391752,0.04475573,0.910543,33.56899,-8.630966,-45.94731,986.0873
0.663844109,0.1685001,0.1514663,0.07477629,-0.3903224,0.04146592,0.9045993,33.19041,-8.615041,-46.33121,986.0927
0.668762207,-0.07883105,-0.08550514,0.1356665,-0.3892869,0.04040018,0.9098976,33.19041,-8.615041,-46.33121,986.0927
0.673679352,0.1683661,-0.1446845,-0.1081673,-0.3926962,0.04371764,0.9134307,33.19041,-8.615041,-46.33121,986.0927
0.678596973,0.04463799,-0.1446308,0.1356684,-0.3893403,0.04243148,0.9055933,33.19041,-8.615041,-46.33121,986.0927
0.683514118,0.1682517,-0.02614828,0.1965204,-0.3933064,0.04780301,0.9033704,33.19041,-8.615041,-46.33121,986.0927
0.688431263,0.1062863,0.03306392,0.07454173,-0.3878057,0.04376189,0.9133919,33.19041,-8.615041,-46.33121,986.0927
0.693351269,0.1680016,-0.08540434,0.1354129,-0.3913299,0.0458529,0.9042627,33.19041,-8.615041,-46.33121,986.0927
0.698266029,0.04433195,-0.08535077,0.07437158,-0.3937296,0.04188608,0.9065829,33.19041,-8.615041,-46.33121,986.0919
0.703183174,0.04426527,-0.1445487,0.257098,-0.3937345,0.0452708,0.9081481,33.19041,-8.615041,-46.33121,986.0919
0.708100796,-0.01750581,-0.08528069,0.0132453,-0.386403,0.04775613,0.9091386,33.19041,-8.615041,-46.33121,986.0919
0.713018417,0.1678513,0.03322033,0.2570047,-0.3913739,0.04786605,0.9009289,33.56427,-8.618211,-46.3304,986.0919
0.717936039,-0.01761971,-0.08521074,-0.04778505,-0.3907846,0.04333862,0.9085475,33.56427,-8.618211,-46.3304,986.0919
0.725311756,0.1059416,-0.1444565,0.1958937,-0.3868465,0.04380702,0.9114434,33.56427,-8.618211,-46.3304,986.0919
0.730228901,0.1676959,0.1517622,-0.04793962,-0.3932136,0.04376763,0.9105233,33.56427,-8.618211,-46.3304,986.0919
0.735146522,0.04402643,0.1517599,0.1348253,-0.3932335,0.04814532,0.9111493,33.56427,-8.618211,-46.3304,986.0919
0.740063667,-0.01784151,-0.08519311,0.1347789,-0.3903102,0.04096036,0.9055541,33.56427,-8.618211,-46.3304,986.0925
0.744980812,0.04395179,-0.2629131,0.01283908,-0.3907646,0.0481221,0.913556,33.56427,-8.618211,-46.3304,986.0925
0.749898910,-0.01789675,0.0333799,0.1956042,-0.3936776,0.04178632,0.9119202,33.56427,-8.618211,-46.3304,986.0925
0.754816055,0.2293204,0.151825,0.1345633,-0.3927888,0.04437737,0.9042274,33.56427,-8.618211,-46.3304,986.0925
0.759733677,-0.07977282,0.03331933,-0.04831353,-0.3937402,0.04962129,0.9102297,33.56427,-8.618211,-46.3304,986.0925
0.764650822,-0.01796007,-0.08518622,0.07355278,-0.3907859,0.0418945,0.9075301,33.56147,-8.251565,-46.31916,986.0925
0.769567966,0.1056347,0.0925851,-0.04836771,-0.3878903,0.04633502,0.9061921,33.56147,-8.251565,-46.31916,986.0925
0.774485111,-0.07981663,-0.02592056,-0.1092362,-0.3937805,0.04680561,0.9043134,33.56147,-8.251565,-46.31916,986.0925
0.779402733,0.04377822,0.09258047,0.07360557,-0.3884396,0.04789261,0.9009057,33.56147,-8.251565,-46.31916,986.0935
0.784319878,0.1055716,-0.02590655,0.01266049,-0.3912189,0.04274701,0.9138729,33.56147,-8.251565,-46.31916,986.0935
0.789237976,0.1055247,0.210986,0.0735897,-0.3917925,0.04531571,0.906677,33.56147,-8.251565,-46.31916,986.0935
0.796613693,0.1054253,0.1517216,-0.04835393,-0.3936896,0.03891623,0.908915,33.56147,-8.251565,-46.31916,986.0935
0.801530838,-0.01824389,0.0923932,0.07349331,-0.3932537,0.04673748,0.9081911,33.56147,-8.251565,-46.31916,986.0935
0.806448460,0.2289735,0.03313941,0.1343651,-0.388855,0.04726472,0.908172,33.56147,-8.251565,-46.31916,986.0935
0.811365604,0.1053044,-0.02617021,0.1951796,-0.3922828,0.04386718,0.9056635,33.56147,-8.251565,-46.31916,986.0935
0.816282749,0.10518,0.09234947,0.01230292,-0.3942478,0.04290185,0.904192,33.57371,-8.643723,-45.56422,986.0935
0.821200371,0.1669542,-0.02615597,0.1950492,-0.3903166,0.04627661,0.9081523,33.57371,-8.643723,-45.56422,986.0919
0.826117516,0.1667911,0.03309353,0.01213434,-0.3937096,0.04666957,0.9115915,33.57371,-8.643723,-45.56422,986.0919
0.831035614,-0.01867929,-0.02612308,-0.04882957,-0.3912545,0.03992226,0.9084418,33.57371,-8.643723,-45.56422,986.0919
0.835956573,-0.01866749,-0.2630202,0.01209998,-0.3927799,0.04194935,0.9036639,33.57371,-8.643723,-45.56422,986.0919
0.840869904,-0.01861697,-0.08521176,0.0121498,-0.3932313,0.04524802,0.9095998,33.57371,-8.643723,-45.56422,986.0919
0.845787525,-0.08044558,-0.08517684,0.07306016,-0.3898165,0.04095572,0.9060354,33.57371,-8.643723,-45.56422,986.0919
0.850704670,0.04318848,-0.02587174,-0.04884085,-0.3927191,0.04279722,0.9104881,33.57371,-8.643723,-45.56422,986.0919
0.855621815,0.2285852,0.03339618,-0.04882928,-0.3908024,0.04819465,0.9096743,33.57371,-8.643723,-45.56422,986.0919
0.862998009,0.166646,-0.08511988,0.07299529,-0.3922376,0.04329813,0.9100147,33.19794,-8.994441,-45.95935,986.0955
0.867915153,0.04295778,-0.1442809,0.07298768,-0.3936965,0.0418226,0.9099793,33.19794,-8.994441,-45.95935,986.0955
0.872833252,0.228277,-0.08495725,-0.04895159,-0.3927577,0.04383554,0.907123,33.19794,-8.994441,-45.95935,986.0955
0.877750397,0.1045306,-0.02565227,0.07297262,-0.3898438,0.0458299,0.9061919,33.19794,-8.994441,-45.95935,986.0955
0.882667541,0.04268286,-0.02565475,-0.1098272,-0.3932405,0.04189051,0.906579,33.19794,-8.994441,-45.95935,986.0955
0.887584686,0.04261724,0.03357587,0.1339712,-0.386417,0.04440769,0.9056327,33.19794,-8.994441,-45.95935,986.0955
0.892502308,0.351559,-0.08487407,0.0729882,-0.3923507,0.04930133,0.901954,33.19794,-8.994441,-45.95935,986.0955
0.897419453,0.1041711,-0.143998,0.07290408,-0.389342,0.04773865,0.9086767,33.19794,-8.994441,-45.95935,986.0955
0.902336597,0.1041057,-0.2624108,0.07285827,-0.3962109,0.04579051,0.9052719,33.19794,-8.994441,-45.95935,986.0938
0.907254219,0.0422388,0.03391921,0.07277421,-0.3942433,0.04626843,0.9067276,33.19794,-8.994441,-45.95935,986.0938
0.912171841,-0.08141006,-0.08449367,0.07272852,-0.3908097,0.0453155,0.9071545,33.18963,-8.612915,-46.39506,986.0938
0.917089462,0.1040261,0.03398814,-0.04915314,-0.3897659,0.0427875,0.9124057,33.18963,-8.612915,-46.39506,986.0938
0.922006607,0.2275442,-0.08449921,0.07273288,-0.3907891,0.03997204,0.9060118,33.18963,-8.612915,-46.39506,986.0938
0.926923752,0.2892027,-0.2620894,0.07266806,-0.3917627,0.04332977,0.9085552,33.18963,-8.612915,-46.39506,986.0938
0.934299946,-0.0199606,-0.02504052,0.2553919,-0.390341,0.04728772,0.9062427,33.18963,-8.612915,-46.39506,986.0938
0.939217091,0.1654369,-0.08423927,0.1942943,-0.395138,0.04224233,0.9129179,33.18963,-8.612915,-46.39506,986.0991
0.944134235,0.2889748,0.03429837,0.194134,-0.3961751,0.04523961,0.9086527,33.18963,-8.612915,-46.39506,986.0991
0.949052334,0.04158732,0.0342396,0.07219521,-0.3907515,0.04327513,0.9119439,33.18963,-8.612915,-46.39506,986.0991
0.953969479,0.1033821,0.09345112,0.07213069,-0.3933007,0.04345253,0.9012887,33.18963,-8.612915,-46.39506,986.0991
0.958887100,0.1032977,-0.08426945,0.07210453,-0.3893425,0.04532877,0.9071429,33.18963,-8.612915,-46.39506,986.0991
0.963804245,0.2268552,-0.02502063,0.315827,-0.3902495,0.04180823,0.9123783,32.81375,-8.245227,-46.32078,986.0991
0.968721390,-0.0822752,0.03424672,0.1328363,-0.3878888,0.04440349,0.9051591,32.81375,-8.245227,-46.32078,986.0991
0.973641872,0.1649047,-0.1434738,0.01089774,-0.3917476,0.03896114,0.9074439,32.81375,-8.245227,-46.32078,986.0991
0.978556156,0.2266414,-0.1433837,0.01085257,-0.3907915,0.04624498,0.9096118,32.81375,-8.245227,-46.32078,986.0974
0.983473301,0.04111407,-0.1433308,0.1327392,-0.3932251,0.04330742,0.909052,32.81375,-8.245227,-46.32078,986.0974
0.988391399,0.1028509,-0.143278,0.2545109,-0.3903316,0.04726958,0.9072132,32.81375,-8.245227,-46.32078,986.0974
0.993308544,0.2263892,-0.2024024,0.1324768,-0.392201,0.04178146,0.912879,32.81375,-8.245227,-46.32078,986.0974
0.998231411,0.1026829,0.03467549,-0.0503988,-0.3922458,0.04476038,0.9100617,32.81375,-8.245227,-46.32078,986.0974
1.005601883,0.04082347,-0.08380463,0.1323644,-0.3907931,0.03901534,0.9050102,32.81375,-8.245227,-46.32078,986.0974
1.010519028,0.1026187,-0.02448178,0.07134409,-0.390759,0.04377162,0.9114743,33.18963,-8.612915,-46.39506,986.0974
1.015436172,0.04075278,-0.02448506,0.0713184,-0.3912189,0.04274701,0.9138729,33.18963,-8.612915,-46.39506,986.0974
1.020353794,0.1024898,0.09395923,0.1321533,-0.3908187,0.04774351,0.9077178,33.18963,-8.612915,-46.39506,986.1027
1.025270939,0.2260089,-0.02451004,0.01021515,-0.3923318,0.04926505,0.9038948,33.18963,-8.612915,-46.39506,986.1027
1.030189037,-0.02135835,0.03470126,0.193001,-0.3898207,0.04337468,0.9070841,33.18963,-8.612915,-46.39506,986.1027
1.035106182,0.1022386,0.09385662,-0.05081137,-0.3898007,0.04815816,0.9120927,33.18963,-8.612915,-46.39506,986.1027
1.040023327,0.2258161,-0.02461265,0.1319745,-0.3941728,0.0437225,0.9124718,33.18963,-8.612915,-46.39506,986.1027
1.044940948,0.0402892,0.2715121,0.01005569,-0.3922736,0.04722468,0.9086843,33.18963,-8.612915,-46.39506,986.1027
1.049858093,0.1020265,0.03448382,0.1928225,-0.3942196,0.04622307,0.9091536,33.18963,-8.612915,-46.39506,986.1027
1.057233810,-0.02167253,0.03445127,0.1927366,-0.3927714,0.04627263,0.9072013,33.18963,-8.612915,-46.39506,986.1027
1.062151432,0.2254887,-0.02480342,0.009861531,-0.3932385,0.04236887,0.9070799,33.20265,-9.007197,-45.57626,986.0993
1.067069054,-0.02178119,-0.02480647,0.0708116,-0.396129,0.0437048,0.9124873,33.20265,-9.007197,-45.57626,986.0993
1.071986675,0.101816,-0.02477223,0.009887458,-0.3952067,0.03948107,0.9040902,33.20265,-9.007197,-45.57626,986.0993
1.076903820,0.1017521,-0.02477528,0.2536107,-0.3921968,0.03936251,0.9118304,33.20265,-9.007197,-45.57626,986.0993
1.081820965,0.1016881,-0.08401133,-0.05115778,-0.3932517,0.04721583,0.9086921,33.20265,-9.007197,-45.57626,986.0993
1.086742401,0.03984225,-0.1431915,0.07076777,-0.3927318,0.04089289,0.9079995,33.20265,-9.007197,-45.57626,986.0993
1.091655731,0.1634202,-0.2023532,0.07070418,-0.3913373,0.04634939,0.9037932,33.20265,-9.007197,-45.57626,986.0993
1.096572876,0.1633369,-0.02463865,0.1315777,-0.3903037,0.04480529,0.9085906,33.20265,-9.007197,-45.57626,986.0993
1.101490974,-0.1457147,-0.08385628,0.009620804,-0.3913073,0.04098779,0.903621,33.20265,-9.007197,-45.57626,986.1016
1.106408119,-0.08386055,-0.02458926,0.0705328,-0.390863,0.04397115,0.9007998,33.20265,-9.007197,-45.57626,986.1016
1.113784313,0.1014287,0.03475991,0.009471753,-0.394236,0.04914758,0.9092475,32.81656,-8.611871,-46.33202,986.1016
1.118701458,-0.02221853,-0.1429795,0.192239,-0.3912677,0.04476923,0.9100539,32.81656,-8.611871,-46.33202,986.1016
1.123618603,0.03959687,-0.0243864,0.009383333,-0.3923326,0.05023082,0.9044113,32.81656,-8.611871,-46.33202,986.1016
1.128535748,0.1013346,0.03482467,0.1311943,-0.3907388,0.04517945,0.9144325,32.81656,-8.611871,-46.33202,986.1016
1.133453369,0.1630531,0.03482139,0.00929503,-0.3971719,0.04189138,0.9046692,32.81656,-8.611871,-46.33202,986.1016
1.138370514,-0.08425526,-0.1428996,0.07026464,-0.3937415,0.04817718,0.9092124,32.81656,-8.611871,-46.33202,986.1016
1.143288612,0.03938121,0.09404773,0.07022046,-0.3898943,0.04399814,0.8998216,32.81656,-8.611871,-46.33202,986.1042
1.148205757,0.0393759,-0.08367319,0.009239223,-0.3947577,0.04245535,0.9017543,32.81656,-8.611871,-46.33202,986.1042
1.153122902,-0.2078159,0.03484546,0.1919491,-0.392237,0.04570802,0.9115486,32.81656,-8.611871,-46.33202,986.1042
1.158040524,0.1013026,-0.02433498,0.1918668,-0.3932848,0.04727932,0.9052956,32.81656,-8.611871,-46.33202,986.1042
1.162957668,-0.08416542,-0.08357137,-0.1737425,-0.3937007,0.04424155,0.911028,32.81847,-8.257982,-45.93769,986.1042
1.167874813,-0.02233049,-0.02428582,0.009120633,-0.3918229,0.04489177,0.9032649,32.81847,-8.257982,-45.93769,986.1042
1.175251007,0.2248188,-0.083589,-0.1128388,-0.3888229,0.04238149,0.9085007,32.81847,-8.257982,-45.93769,986.1042
1.180168152,0.03929254,0.03491101,0.0700435,-0.3913055,0.04484178,0.9061722,32.81847,-8.257982,-45.93769,986.1009
1.185086250,0.1010499,-0.1427355,-0.05191303,-0.3902311,0.03936207,0.9127852,32.81847,-8.257982,-45.93769,986.1009
1.190003395,0.1627879,0.03499747,-0.0518613,-0.3868896,0.04147876,0.9055426,32.81847,-8.257982,-45.93769,986.1009
1.194920540,-0.02267999,0.03495689,0.009070115,-0.3912819,0.04479644,0.9085983,32.81847,-8.257982,-45.93769,986.1009
1.199838162,0.1009372,-0.02431667,-0.05187275,-0.3902318,0.04032784,0.9133018,32.81847,-8.257982,-45.93769,986.1009
1.204755306,0.2244574,-0.08353441,0.009077847,-0.3903296,0.04774793,0.9077139,32.81847,-8.257982,-45.93769,986.1009
1.209672451,0.1625149,0.09417995,0.1918453,-0.3927199,0.04376299,0.9110046,33.19794,-8.994441,-45.95935,986.1009
1.214589596,0.1006114,0.03490638,0.4354733,-0.3957505,0.049225,0.9044071,33.19794,-8.994441,-45.95935,986.1009
1.219507694,-0.1466189,0.0349031,0.1915278,-0.3922497,0.04380369,0.9090599,33.19794,-8.994441,-45.95935,986.1019
1.224424839,-0.02292384,-0.0834918,-0.05228369,-0.3947167,0.04430525,0.9071541,33.19794,-8.994441,-45.95935,986.1019
1.229342461,0.0389115,-0.08345801,0.2523966,-0.3893087,0.04429951,0.9100228,33.19794,-8.994441,-45.95935,986.1019
1.234259605,-0.20828,0.03504188,-0.05239024,-0.395259,0.04295649,0.9008033,33.19794,-8.994441,-45.95935,986.1019
1.241635799,0.0389862,0.03513907,0.1304706,-0.3912593,0.03993133,0.9079565,33.19794,-8.994441,-45.95935,986.1019
1.246552944,0.1007826,-0.08331177,0.008533495,-0.3897734,0.04328398,0.9119362,33.19794,-8.994441,-45.95935,986.1019
1.251470089,0.1624819,-0.02404499,0.06942701,-0.393244,0.0433437,0.9071112,33.19794,-8.994441,-45.95935,986.1019
1.256387234,0.1623605,-0.08322577,0.008465364,-0.3917709,0.04479201,0.9086022,33.19794,-8.994441,-45.95935,986.1019
1.261305332,0.22406,-0.0831921,0.008479199,-0.3878332,0.0394749,0.9079138,33.18682,-8.24627,-46.38382,986.1089
1.266222477,0.2238999,0.0945034,0.06941102,-0.3888881,0.04732821,0.9047755,33.18682,-8.24627,-46.38382,986.1089
1.271140099,-0.08518991,0.03524825,-0.1134823,-0.3932492,0.05010406,0.9107267,33.18682,-8.24627,-46.38382,986.1089
1.276057243,-0.1469379,0.03524474,-0.05243564,-0.3873804,0.04678151,0.90863,33.18682,-8.24627,-46.38382,986.1089
1.280974388,-0.02328147,-0.02404759,0.008457865,-0.3913197,0.04486899,0.9047166,33.18682,-8.24627,-46.38382,986.1089
1.285892010,-0.2086713,0.09439637,0.0084717,-0.3912851,0.04287399,0.9070801,33.18682,-8.24627,-46.38382,986.1089
1.290812492,0.1003895,0.2128031,0.1302641,-0.3908172,0.04581198,0.9066849,33.18682,-8.24627,-46.38382,986.1089
1.295727253,0.1003653,-0.08340264,0.1302397,-0.390819,0.04195798,0.9041337,33.18682,-8.24627,-46.38382,986.1089
1.303102970,0.03841095,-0.02410963,0.008319335,-0.3922814,0.04193564,0.9046304,33.18682,-8.24627,-46.38382,986.1098
1.308020115,0.1001883,-0.08330884,-0.05262306,-0.3908816,0.04979295,0.9024432,32.82599,-8.637383,-45.56583,986.1098
1.312937737,0.1001642,-0.08327504,0.008289687,-0.3878401,0.04238127,0.908978,32.82599,-8.637383,-45.56583,986.1098
1.317854881,-0.08526438,0.03518745,0.1301587,-0.3918189,0.04584848,0.9042666,32.82599,-8.637383,-45.56583,986.1098
1.322772026,0.1619757,0.0943984,0.008240914,-0.3932744,0.04291977,0.9036992,32.82599,-8.637383,-45.56583,986.1098
1.327689648,0.03827099,-0.08330409,0.06917285,-0.3917308,0.04182216,0.9109343,32.82599,-8.637383,-45.56583,986.1098
1.332606793,0.100029,-0.08323323,0.008211441,-0.3903239,0.04339746,0.9056323,32.82599,-8.637383,-45.56583,986.1098
1.337524891,0.1617288,-0.2016284,0.1300806,-0.391256,0.04185379,0.9094748,32.82599,-8.637383,-45.56583,986.1098
1.342442036,0.09980635,0.09455176,0.2518923,-0.3907719,0.04524294,0.9110361,32.82599,-8.637383,-45.56583,986.1108
1.347359181,0.223366,-0.08311366,0.1298981,-0.3942179,0.04091589,0.9060702,32.82599,-8.637383,-45.56583,986.1108
1.352276325,0.03787952,-0.1423689,-0.05295669,-0.3937927,0.04731117,0.9033586,32.82599,-8.637383,-45.56583,986.1108
1.357193947,0.09963779,-0.08300924,0.1298497,-0.3903,0.03997646,0.9060079,32.82599,-8.637383,-45.56583,986.1108
1.362111092,0.03781254,-0.2014418,-0.05298587,-0.3898281,0.04387116,0.9066145,33.20265,-9.007197,-45.57626,986.1108
1.369486809,0.09953951,0.03562424,0.1298372,-0.3897732,0.03990833,0.9098858,33.20265,-9.007197,-45.57626,986.1108
1.374404907,0.03775317,-0.02361248,-0.0530558,-0.3903099,0.04674589,0.9091383,33.20265,-9.007197,-45.57626,986.1108
1.379322052,-0.02405263,-0.08286797,0.06879435,-0.3888215,0.04044995,0.9074676,33.20265,-9.007197,-45.57626,986.1108
1.384239674,0.03776396,-0.142049,0.007852299,-0.391749,0.04089267,0.9084769,33.20265,-9.007197,-45.57626,986.1091
1.389156818,-0.1476642,0.1541496,0.06874622,-0.3933131,0.04733373,0.9023843,33.20265,-9.007197,-45.57626,986.1091
1.394073963,0.03779421,-0.02357191,0.0686839,-0.3941896,0.04086147,0.9089814,33.20265,-9.007197,-45.57626,986.1091
1.398996830,-0.02406984,0.035676,-0.0532527,-0.3882746,0.0451653,0.916354,33.20265,-9.007197,-45.57626,986.1091
1.403908730,0.1613303,-0.08279383,0.007679587,-0.3927388,0.04379927,0.9090638,33.20265,-9.007197,-45.57626,986.1091
1.408825874,0.09942744,-0.08274185,0.06859274,-0.3908843,0.05028036,0.9024588,33.19233,-8.261152,-45.93688,986.1091
1.413744450,0.03756351,-0.2603518,0.1294485,-0.3887443,0.0383733,0.9141979,33.19233,-8.261152,-45.93688,986.1091
1.418661118,0.3465084,-0.08252645,0.2512414,-0.3879052,0.04732799,0.905253,33.19233,-8.261152,-45.93688,986.1091
1.423578739,0.1609251,-0.02320428,0.007392471,-0.3952601,0.05067354,0.9054206,33.19233,-8.261152,-45.93688,986.1117
1.428495884,-0.0863236,-0.02317117,-0.05360672,-0.3902773,0.04427253,0.9110008,33.19233,-8.261152,-45.93688,986.1117
1.435871601,-0.0244602,-0.1415782,-0.1146273,-0.3952326,0.04242373,0.9032137,33.19233,-8.261152,-45.93688,986.1117
1.440789223,-0.02440601,-0.1415264,0.007299866,-0.3897952,0.04718332,0.9120614,33.19233,-8.261152,-45.93688,986.1117
1.445706368,0.1610331,0.03622434,0.007314399,-0.3922537,0.04284699,0.9080582,33.19233,-8.261152,-45.93688,986.1117
1.450624466,0.09916932,0.03618298,0.06820866,-0.3985818,0.04417915,0.9120372,33.19233,-8.261152,-45.93688,986.1117
1.455541611,-0.1480406,-0.08232438,-0.1146456,-0.392253,0.04188122,0.9075416,33.19233,-8.261152,-45.93688,986.1117
1.460458756,0.0373986,-0.1415429,0.1900929,-0.3903253,0.04532899,0.9066654,33.56629,-8.982728,-46.40549,986.1184
1.465375900,0.03737514,0.1546553,0.007181218,-0.3976786,0.04336736,0.9037496,33.56629,-8.982728,-46.40549,986.1184
1.470293522,0.09911431,0.09534376,0.3118241,-0.3922652,0.04238679,0.9065869,33.56629,-8.982728,-46.40549,986.1184
1.475210667,0.03723117,-0.02316359,0.189773,-0.3952191,0.04336228,0.9051859,33.56629,-8.982728,-46.40549,986.1184
1.480127812,0.1607524,0.15455,-0.05403731,-0.3907968,0.04384418,0.9075927,33.56629,-8.982728,-46.40549,986.1184
1.485045433,0.2224917,-0.200908,0.0678326,-0.3882898,0.04037275,0.9118307,33.56629,-8.982728,-46.40549,986.1184
1.489963055,0.2223326,-0.1416046,0.128708,-0.3917888,0.04048688,0.9040945,33.56629,-8.982728,-46.40549,986.1184
1.494880676,0.09862874,0.03612772,0.128608,-0.392291,0.04532943,0.9057104,33.56629,-8.982728,-46.40549,986.1184
1.499799729,-0.02503621,-0.2600043,0.189426,-0.3923047,0.04776651,0.9057887,33.56629,-8.982728,-46.40549,986.1184
1.507173538,0.09857091,-0.08226482,0.2502229,-0.3917843,0.04385346,0.90663,33.56899,-8.630966,-45.94731,986.1151
1.512091160,0.03672691,-0.1414462,0.1891669,-0.3918092,0.0424547,0.9031866,33.56899,-8.630966,-45.94731,986.1151
1.517008305,0.0367038,-0.1413387,-0.05464311,-0.390756,0.03990855,0.9094083,33.56899,-8.630966,-45.94731,986.1151
1.521925449,0.03668068,-0.02283959,0.1281452,-0.3922776,0.04626799,0.9076825,33.56899,-8.630966,-45.94731,986.1151
1.526843548,0.03665769,0.2141069,-0.1765827,-0.3912953,0.04385789,0.9066262,33.56899,-8.630966,-45.94731,986.1151
1.531760693,0.03661524,0.03627328,-0.1155921,-0.3917545,0.04186751,0.9085083,33.56899,-8.630966,-45.94731,986.1151
1.536678314,0.09835489,0.09550209,0.006354865,-0.3922303,0.04617729,0.9125346,33.56899,-8.630966,-45.94731,986.1151
1.541595459,-0.02530983,0.2139267,0.06723058,-0.3927515,0.04189494,0.9065751,33.56899,-8.630966,-45.94731,986.1117
1.546512604,0.03644934,-0.02310257,0.1280489,-0.3907821,0.04622684,0.9105822,33.56899,-8.630966,-45.94731,986.1117
1.551429749,-0.02539449,0.03614489,0.006132509,-0.3879037,0.04539647,0.90422,33.56899,-8.630966,-45.94731,986.1117
1.556347370,-0.02533972,0.09535529,-0.05478937,-0.3937107,0.0418498,0.9085237,33.18761,-8.248397,-46.31997,986.1117
1.563724041,-0.1490546,-0.1416295,0.006122858,-0.3942478,0.04290185,0.904192,33.18761,-8.248397,-46.31997,986.1117
1.568641186,0.2835523,-0.0231489,0.1889305,-0.3931955,0.04469711,0.9129806,33.18761,-8.248397,-46.31997,986.1117
1.573558331,0.09800858,-0.08238596,0.06695661,-0.3888486,0.04194847,0.9055738,33.18761,-8.248397,-46.31997,986.1117
1.578475952,0.2833126,0.03607607,0.1887888,-0.391796,0.0467689,0.9072092,33.18761,-8.248397,-46.31997,986.1117
1.583393097,0.4066987,0.2137339,0.1277905,-0.3883135,0.0404181,0.9094046,33.18761,-8.248397,-46.31997,986.1144
1.588310242,0.2210777,-0.02331379,0.188609,-0.3873926,0.04728707,0.9076751,33.18761,-8.248397,-46.31997,986.1144
1.593227386,0.1591179,0.03591525,-0.05521967,-0.3848607,0.04521442,0.9153565,33.18761,-8.248397,-46.31997,986.1144
1.598145008,0.09721649,-0.0233217,0.4322739,-0.3957233,0.04772647,0.906301,33.18761,-8.248397,-46.31997,986.1144
1.603062630,0.09717481,-0.319435,-0.05537999,-0.3902855,0.04573478,0.9110478,33.18761,-8.248397,-46.31997,986.1144
1.607980251,0.09715258,0.09528522,-0.05534523,-0.3922731,0.04963457,0.9102182,33.19243,-8.979559,-46.40629,986.1144
1.615355968,0.2825431,-0.08242925,0.06654288,-0.39421,0.04282929,0.9080737,33.19243,-8.979559,-46.40629,986.1144
1.620273113,0.0969806,0.09524713,0.1274382,-0.3907646,0.0481221,0.913556,33.19243,-8.979559,-46.40629,986.1144
1.625190735,-0.1502474,-0.02324146,0.06651666,-0.3923065,0.04391252,0.9032375,33.19243,-8.979559,-46.40629,986.117
1.630107880,-0.08840979,0.03596893,0.005537755,-0.3922739,0.04143915,0.9051,33.19243,-8.979559,-46.40629,986.117
1.635025024,0.1587934,-0.02324948,0.1882883,-0.393696,0.04423247,0.9115132,33.19243,-8.979559,-46.40629,986.117
1.639943123,0.09693102,-0.1416637,0.0662957,-0.388903,0.04832119,0.9038364,33.19243,-8.979559,-46.40629,986.117
1.644860268,0.09687012,-0.141556,0.1271338,-0.3908062,0.04386231,0.9066223,33.19243,-8.979559,-46.40629,986.117
1.649777889,-0.02681311,0.03623203,0.1270539,-0.3917647,0.04285142,0.9080544,33.19243,-8.979559,-46.40629,986.117
1.654695034,-0.1503992,-0.2599186,0.06609438,-0.3898152,0.04239985,0.9070528,33.19243,-8.979559,-46.40629,986.117
1.662070751,0.03499157,-0.200664,0.005190646,-0.3907582,0.04280586,0.9109578,33.19985,-8.640553,-45.56503,986.1179
1.666988373,-0.08861396,-0.02283879,0.005187391,-0.3898281,0.04387116,0.9066145,33.19985,-8.640553,-45.56503,986.1179
1.671905518,0.220449,-0.02278726,0.06610218,-0.3932826,0.04438201,0.9037461,33.19985,-8.640553,-45.56503,986.1179
1.676823616,0.1584897,-0.08202455,0.06609898,-0.3907983,0.0457757,0.9086257,33.19985,-8.640553,-45.56503,986.1179
1.681740761,-0.02695602,-0.08202884,0.06603829,-0.3917851,0.04481922,0.9071466,33.19985,-8.640553,-45.56503,986.1179
1.686657906,-0.02691971,-0.08201449,0.1269913,-0.3878856,0.04632595,0.9066773,33.19985,-8.640553,-45.56503,986.1179
1.691575527,0.09666135,-0.08190713,0.005113795,-0.3907694,0.04813117,0.9130708,33.19985,-8.640553,-45.56503,986.1179
1.696492672,0.1583827,-0.1410887,-0.05582657,-0.3937631,0.04870087,0.9072872,33.19985,-8.640553,-45.56503,986.1179
1.701409817,-0.0888838,-0.1410187,0.2488368,-0.3947391,0.04579472,0.9057454,33.19985,-8.640553,-45.56503,986.1206
1.706326961,0.09659585,-0.02246415,0.00500846,-0.3868287,0.03895097,0.9103165,32.82688,-9.357916,-45.9714,986.1206
1.711245060,0.03477254,-0.08168314,0.004986194,-0.3913122,0.04437251,0.9051862,32.82688,-9.357916,-45.9714,986.1206
1.716162205,-0.0888328,-0.02239883,0.06590109,-0.3951957,0.04669257,0.9096622,32.82688,-9.357916,-45.9714,986.1206
1.723538399,-0.08867144,-0.1408252,0.06581983,-0.395184,0.04377714,0.9090831,32.82688,-9.357916,-45.9714,986.1206
1.728455543,-0.02687254,0.03694379,0.004879638,-0.3942201,0.0438132,0.9076198,32.82688,-9.357916,-45.9714,986.1206
1.733373165,0.09674725,0.03697634,-0.1169977,-0.3921923,0.04272909,0.9143659,32.82688,-9.357916,-45.9714,986.1206
1.738290310,0.03492383,-0.02233577,0.06581064,-0.3907995,0.04433159,0.9076083,32.82688,-9.357916,-45.9714,986.1206
1.743207455,-0.0268802,-0.1407692,-0.177941,-0.3916585,0.03975459,0.9171793,32.82688,-9.357916,-45.9714,986.1189
1.748125553,-0.3358513,-0.1406994,-0.05601236,-0.3903144,0.04337932,0.9066027,32.82688,-9.357916,-45.9714,986.1189
1.753042698,0.03509091,0.03706946,0.06587796,-0.3932855,0.04824509,0.9058121,32.82688,-9.357916,-45.9714,986.1189
1.757959843,0.09687036,-0.08138274,-0.1779311,-0.3927348,0.04475595,0.9100655,33.56349,-8.616084,-46.39425,986.1189
1.762877464,0.09680951,-0.08131301,-0.05600248,-0.3883261,0.04767494,0.9125506,33.56349,-8.616084,-46.39425,986.1189
1.767794609,0.2203516,0.09638134,0.005008111,-0.3878652,0.04435814,0.9075851,33.56349,-8.616084,-46.39425,986.1189
1.772711754,0.09661023,-0.259003,0.004966662,-0.3927216,0.04907017,0.914088,33.56349,-8.616084,-46.39425,986.1189
1.777629375,0.09658836,-0.08119695,0.004925214,-0.3908128,0.04001739,0.9035859,33.56349,-8.616084,-46.39425,986.1189
1.782546520,-0.02707529,0.03728283,0.06584012,-0.3922458,0.04476038,0.9100617,33.56349,-8.616084,-46.39425,986.1259
1.787464619,-0.02707771,0.03729662,0.0048808,-0.3917796,0.04384439,0.9071153,33.56349,-8.616084,-46.39425,986.1259
1.792381763,-0.08882337,-0.08117424,0.1267137,-0.3911886,0.04317094,0.917285,33.56349,-8.616084,-46.39425,986.1259
1.799757481,0.1584662,-0.02193921,0.2486026,-0.3898371,0.04629917,0.907178,33.56349,-8.616084,-46.39425,986.1259
1.804675102,0.03478315,-0.1403729,0.004755293,-0.3907806,0.04429531,0.9095491,33.18963,-8.612915,-46.39506,986.1259
1.809592247,0.03480013,0.09659155,-0.05618484,-0.3932004,0.04808184,0.9145458,33.18963,-8.612915,-46.39506,986.1259
1.814509392,-0.1506261,0.09656804,0.00476843,-0.3907817,0.03947555,0.9064814,33.18963,-8.612915,-46.39506,986.1259
1.819427013,0.2201997,-0.1995834,0.06570257,-0.3917507,0.04619986,0.9115604,33.18963,-8.612915,-46.39506,986.1259
1.824344635,-0.1506698,-0.02177748,0.1265793,-0.3893532,0.0439028,0.9051551,33.18963,-8.612915,-46.39506,986.1282
1.829262257,-0.08885138,0.2151311,0.06560096,-0.3941669,0.04515754,0.9139743,33.18963,-8.612915,-46.39506,986.1282
1.834179401,-0.088815,-0.02189897,0.1264586,-0.393282,0.0467919,0.9052799,33.18963,-8.612915,-46.39506,986.1282
1.839096546,-0.02697713,-0.08108111,-0.1172929,-0.3878163,0.03896027,0.9093537,33.18963,-8.612915,-46.39506,986.1282
1.844013691,-0.0887811,-0.02185298,0.1264911,-0.3908254,0.04727423,0.9067318,33.18963,-8.612915,-46.39506,986.1282
1.848936081,0.0966597,-0.1403426,0.1264499,-0.3907548,0.04135266,0.9104257,33.18963,-8.612915,-46.39506,986.1282
1.853848457,-0.0887666,0.03738884,0.0654333,-0.3976333,0.04279832,0.9081008,33.5718,-8.99761,-45.95855,986.1282
1.858766556,0.03487271,-0.1995296,0.06539214,-0.3927674,0.04722933,0.9082029,33.5718,-8.99761,-45.95855,986.1282
1.863683701,0.1584149,0.2151526,0.004394755,-0.3932469,0.04720676,0.9091772,33.5718,-8.99761,-45.95855,986.1248
1.871059418,0.03474041,0.09665121,-0.05658485,-0.3912978,0.04096965,0.9045914,33.5718,-8.99761,-45.95855,986.1248
1.875977039,-0.1507053,-0.02185693,-0.1174864,-0.3917487,0.0466782,0.9120612,33.5718,-8.99761,-45.95855,986.1248
1.880894184,0.03473558,0.09664138,-0.05653288,-0.3951189,0.0388304,0.9128083,33.5718,-8.99761,-45.95855,986.1248
1.885811329,0.09653459,-0.3179761,-0.2392896,-0.3854978,0.04742268,0.901352,33.5718,-8.99761,-45.95855,986.1248
1.890728950,0.09645453,0.09676174,-0.117265,-0.3853849,0.04479513,0.911463,33.5718,-8.99761,-45.95855,986.1248
1.895646572,0.09647163,0.09671959,0.06550521,-0.3883326,0.04383003,0.9095141,33.5718,-8.99761,-45.95855,986.1248
1.900564194,0.09641102,0.03740714,-0.05639109,-0.3952022,0.04284766,0.9066258,33.5718,-8.99761,-45.95855,986.1248
1.905481338,-0.02721366,-0.3179959,0.06549946,-0.3888933,0.0449274,0.9027565,33.19243,-8.979559,-46.40629,986.1259
1.910398483,0.2199122,0.09676062,0.0654583,-0.3872747,0.04127481,0.916221,33.19243,-8.979559,-46.40629,986.1259
1.915316105,-0.0891362,0.09669981,0.126316,-0.3931833,0.04419155,0.9139353,33.19243,-8.979559,-46.40629,986.1259
1.934988499,0.2197845,0.03750298,0.1263049,-0.3898321,0.04291447,0.9056128,33.19243,-8.979559,-46.40629,986.1259
1.939902782,-0.0275789,-0.1401638,0.004370397,-0.3908137,0.04435879,0.9061527,33.19243,-8.979559,-46.40629,986.1259
1.944820404,0.03423987,-0.1993461,-0.05660775,-0.3892637,0.03794495,0.9107897,33.19243,-8.979559,-46.40629,986.1328
1.949738979,-0.02760255,-0.02157756,0.004326682,-0.3902841,0.04380325,0.9100149,33.19243,-8.979559,-46.40629,986.1328
1.957113266,-0.1512571,-0.139986,0.004265178,-0.3917627,0.04332977,0.9085552,33.19794,-8.994441,-45.95935,986.1328
1.962030888,-0.08939944,0.03774517,0.1261368,-0.3887918,0.04183964,0.9113963,33.19794,-8.994441,-45.95935,986.1328
1.966948509,0.09602232,-0.08072603,0.004240704,-0.3932067,0.04086126,0.9094589,33.19794,-8.994441,-45.95935,986.1328
1.971866131,0.0960008,-0.08073122,-0.1176171,-0.3927299,0.04137124,0.9085004,33.19794,-8.994441,-45.95935,986.1328
1.976783276,0.09595994,-0.02146602,0.06522996,-0.3933333,0.0459259,0.8994262,33.19794,-8.994441,-45.95935,986.1328
1.981700420,-0.02768385,0.03781772,0.06524641,-0.3917756,0.04480108,0.9081169,33.19794,-8.994441,-45.95935,986.1337
1.986618042,0.2194812,0.03779399,-0.0566306,-0.3957358,0.04244651,0.901762,33.19794,-8.994441,-45.95935,986.1337
1.991535187,0.03393883,-0.1990874,0.06524094,-0.3917578,0.03994504,0.9069901,33.19794,-8.994441,-45.95935,986.1337
1.996452332,0.09571898,0.3340419,0.004320288,-0.3903403,0.04632196,0.9057263,33.19794,-8.994441,-45.95935,986.1337
2.001369953,0.1574603,-0.02145438,0.004279304,-0.3912655,0.04187193,0.9085044,33.19794,-8.994441,-45.95935,986.1337
2.006287575,0.1573614,-0.1398884,-0.05664141,-0.3903106,0.04771166,0.9096548,33.94015,-8.985898,-46.40468,986.1337
2.013663769,0.1571743,-0.1398682,-0.05672198,-0.389793,0.04428602,0.9105119,33.94015,-8.985898,-46.40468,986.1337
2.018580914,0.2188576,0.1563476,0.06514968,-0.3892965,0.04379397,0.9109775,33.94015,-8.985898,-46.40468,986.1337
2.023498058,0.09515606,-0.0214311,0.004229019,-0.3918184,0.04825836,0.9058005,33.94015,-8.985898,-46.40468,986.1321
2.028415680,0.1568784,-0.08061346,0.1261006,-0.391288,0.04673704,0.909146,33.94015,-8.985898,-46.40468,986.1321
2.033332825,0.1568187,-0.08058148,-0.05675175,-0.391789,0.04386253,0.9061448,33.94015,-8.985898,-46.40468,986.1321
2.038249969,-0.1522484,-0.1397825,0.06513904,-0.3923012,0.04631333,0.9052566,33.94015,-8.985898,-46.40468,986.1321
2.043168068,0.09501433,-0.1397132,0.1260544,-0.391752,0.04475573,0.910543,33.94015,-8.985898,-46.40468,986.1321
2.048085213,-0.02857068,0.09730658,0.06507637,-0.3912398,0.04230494,0.9114313,33.94015,-8.985898,-46.40468,986.1321
2.053002357,-0.09039304,-0.08041637,0.1869098,-0.3879074,0.0502253,0.9068025,33.93813,-8.621381,-46.32959,986.1321
2.057919979,0.09506816,-0.08038439,0.004019219,-0.3937087,0.04232816,0.9090245,33.93813,-8.621381,-46.32959,986.1321
2.062837124,0.03318754,-0.08027804,0.1258719,-0.3912766,0.04719725,0.9106174,33.93813,-8.621381,-46.32959,986.1287
2.067754269,0.2185517,0.09745282,-0.05698032,-0.3923269,0.04588033,0.9023296,33.93813,-8.621381,-46.32959,986.1287
2.072671890,0.1566323,-0.02101871,0.003935218,-0.3913132,0.04871393,0.907753,33.93813,-8.621381,-46.32959,986.1287
2.077589512,-0.09063312,-0.02096831,-0.1179032,-0.3898236,0.04723773,0.9091501,33.93813,-8.621381,-46.32959,986.1287
2.084965706,0.09483728,-0.02096718,0.003986374,-0.3898094,0.04721052,0.9106057,33.93813,-8.621381,-46.32959,986.1287
2.089882851,0.2802015,-0.02091677,-0.1178522,-0.3901878,0.03831468,0.9166356,33.93813,-8.621381,-46.32959,986.1287
2.094799995,-0.02894305,-0.08013666,0.06499504,-0.3913279,0.04633125,0.9047636,33.93813,-8.621381,-46.32959,986.1287
2.099717617,0.1564213,-0.1393008,0.1259105,-0.3888122,0.04380746,0.9104884,33.93813,-8.621381,-46.32959,986.1287
2.104634762,-0.02898432,0.09766291,0.003957134,-0.3917518,0.04138009,0.9084926,32.50973,-8.621986,-45.9496,986.1253
2.109551907,0.3418039,0.03836855,-0.05694422,-0.3917632,0.04091988,0.9070213,32.50973,-8.621986,-45.9496,986.1253
2.114470005,0.09444156,-0.08008433,0.1258264,-0.3922261,0.04375834,0.911486,32.50973,-8.621986,-45.9496,986.1253
2.119387150,0.0325613,0.09764642,0.1867036,-0.3908393,0.0439258,0.9032258,32.50973,-8.621986,-45.9496,986.1253
2.124304771,0.09432288,0.1568553,0.003813198,-0.3918034,0.04726539,0.9067396,32.50973,-8.621986,-45.9496,986.1253
2.129221916,0.03246213,-0.08013813,0.06469049,-0.3937114,0.04281558,0.9090402,32.50973,-8.621986,-45.9496,986.1253
2.134139061,0.1560253,0.09755555,0.06466898,-0.3917587,0.04428646,0.9095569,32.50973,-8.621986,-45.9496,986.1253
2.139056683,0.09412578,-0.2578294,0.3083578,-0.3917707,0.04141637,0.9065518,32.50973,-8.621986,-45.9496,986.1253
2.146432400,-0.02944937,-0.1392879,0.06447174,-0.3913028,0.04435437,0.9061565,32.50973,-8.621986,-45.9496,986.1263
2.151350498,0.09419146,0.09765715,-0.05738562,-0.3917925,0.04531571,0.906677,33.18963,-8.612915,-46.39506,986.1263
2.156267643,-0.2148168,0.03839997,-0.05731127,-0.394256,0.04436409,0.904239,33.18963,-8.612915,-46.39506,986.1263
2.161184788,0.09422843,-0.139286,0.003642695,-0.3893696,0.0468273,0.9052489,33.18963,-8.612915,-46.39506,986.1263
2.166102409,0.09414978,-0.1392172,0.003659554,-0.3971417,0.04569097,0.9101317,33.18963,-8.612915,-46.39506,986.1263
2.171019554,-0.02949288,-0.07995256,0.003638103,-0.3942043,0.0384788,0.905992,33.18963,-8.612915,-46.39506,986.1263
2.175936699,0.1558912,-0.07992092,0.06455382,-0.3912196,0.04371278,0.9143894,33.18963,-8.612915,-46.39506,986.1263
2.180853844,0.1557739,-0.02067492,-0.118279,-0.3883794,0.04633059,0.9061959,33.18963,-8.612915,-46.39506,986.1263
2.185771942,0.09385517,-0.07989503,0.06453016,-0.3932149,0.04232352,0.9095059,33.18963,-8.612915,-46.39506,986.1273
2.190689087,0.03199472,0.0386026,0.1254268,-0.3902846,0.04139337,0.908481,33.18963,-8.612915,-46.39506,986.1273
2.195606709,0.09375666,-0.2574938,0.1253097,-0.391798,0.04629055,0.9067083,33.18963,-8.612915,-46.39506,986.1273
2.200523853,-0.02992457,-0.1389591,0.00345237,-0.3912893,0.04529293,0.9081287,33.5718,-8.99761,-45.95855,986.1273
2.205440998,0.03191513,0.03879009,-0.1184049,-0.3888286,0.04673196,0.9105823,33.5718,-8.99761,-45.95855,986.1273
2.210358620,0.09367719,-0.02044867,-0.05745079,-0.3942463,0.04097031,0.903159,33.5718,-8.99761,-45.95855,986.1273
2.215275765,0.09361834,-0.1981162,0.00352242,-0.3893172,0.03997625,0.9064854,33.5718,-8.99761,-45.95855,986.1273
2.220192909,-0.03004342,0.0389404,0.003539336,-0.3893209,0.04480507,0.9090679,33.5718,-8.99761,-45.95855,986.1273
2.227569580,-0.02995682,-0.1387581,0.06449226,-0.3907838,0.04237285,0.9080309,33.5718,-8.99761,-45.95855,986.1222
2.232486725,0.09360667,-0.1979413,0.003572065,-0.3932144,0.04473339,0.9110398,33.5718,-8.99761,-45.95855,986.1222
2.237404347,0.03178525,0.03909658,0.003569856,-0.3932131,0.04617751,0.9120572,33.5718,-8.99761,-45.95855,986.1222
2.242321491,-0.02997792,0.09830505,0.06450476,-0.3922272,0.03893857,0.9084182,33.5718,-8.99761,-45.95855,986.1222
2.247238636,0.09362441,0.03897306,0.06442598,-0.392241,0.04475131,0.9105468,33.5718,-8.99761,-45.95855,986.1222
2.252156258,-0.0300179,-0.1386946,0.1862406,-0.3927672,0.04385368,0.9061525,33.56619,-8.264321,-45.93607,986.1222
2.257073879,0.09352619,-0.07939303,0.0642302,-0.3897383,0.04369885,0.9158334,33.56619,-8.264321,-45.93607,986.1222
2.261991501,0.2170121,0.03908562,0.06417067,-0.3917845,0.04722911,0.9086804,33.56619,-8.264321,-45.93607,986.1222
2.266908646,0.09331165,0.09834992,0.003212399,-0.3893764,0.04635802,0.9042629,33.56619,-8.264321,-45.93607,986.1289
2.271825790,-0.03033048,0.09828822,0.1250847,-0.3907955,0.04528829,0.9086101,33.56619,-8.264321,-45.93607,986.1289
2.276742935,0.09323324,-0.02022106,0.06408812,-0.3957027,0.04238302,0.9051585,33.56619,-8.264321,-45.93607,986.1289
2.281660557,0.1549956,0.03898752,0.06408615,-0.3927801,0.045325,0.9057143,33.56619,-8.264321,-45.93607,986.1289
2.289036274,0.3402152,0.03887632,0.06400662,-0.3941736,0.04468826,0.9129884,33.56619,-8.264321,-45.93607,986.1289
2.293954372,0.092815,-0.07965138,0.06398557,-0.3902406,0.03938021,0.9118149,33.56619,-8.264321,-45.93607,986.1289
2.298871517,0.09279548,0.03884615,0.003008238,-0.3908269,0.04004459,0.9021302,33.56619,-8.264321,-45.93607,986.1289
2.303788662,0.3399042,-0.02039262,0.06396261,-0.3922634,0.04624078,0.9091381,33.19243,-8.979559,-46.40629,986.1298
2.308706284,0.2779281,-0.02041703,0.2467147,-0.3908336,0.04873649,0.9067788,33.19243,-8.979559,-46.40629,986.1298
2.313623428,0.1541699,-0.07963725,-0.058126,-0.3927172,0.04327557,0.9109889,33.19243,-8.979559,-46.40629,986.1298
2.318540573,0.03047016,-0.02037273,0.1856399,-0.3893913,0.047351,0.9033238,33.19243,-8.979559,-46.40629,986.1298
2.323458195,0.2776569,-0.02035984,0.002750188,-0.395598,0.04121771,0.9153165,33.19243,-8.979559,-46.40629,986.1298
2.328375816,0.03029605,0.03884874,-0.1191258,-0.3888702,0.04247218,0.9036486,33.19243,-8.979559,-46.40629,986.1298
2.333293438,0.0920979,0.03886151,0.1856156,-0.3951731,0.04182746,0.9090205,33.19243,-8.979559,-46.40629,986.1298
2.338210583,0.03021917,0.157266,0.1246001,-0.3938002,0.04780766,0.9028891,33.19243,-8.979559,-46.40629,986.1298
2.343127728,0.09196283,0.03870115,0.1245601,-0.3873338,0.04765658,0.9139984,33.19243,-8.979559,-46.40629,986.1325
2.350503922,0.09193441,0.09789764,-0.05827296,-0.3873563,0.03998487,0.9069552,33.18963,-8.612915,-46.39506,986.1325
2.355421066,0.09189609,0.03862181,0.002700775,-0.392287,0.04628613,0.9067122,33.18963,-8.612915,-46.39506,986.1325
2.360338211,0.09179952,0.09783062,0.002737341,-0.3918169,0.04632683,0.9047675,33.18963,-8.612915,-46.39506,986.1325
2.365256310,0.09176126,-0.07991131,0.1855662,-0.3907582,0.04280586,0.9109578,33.18963,-8.612915,-46.39506,986.1325
2.370173454,0.09166475,0.09778214,0.1244934,-0.3927306,0.04233702,0.9090168,33.18963,-8.612915,-46.39506,986.1325
2.375091076,0.3387742,0.09772066,0.002560037,-0.3912858,0.04383975,0.9075965,33.18963,-8.612915,-46.39506,986.1325
2.380008221,0.1531958,-0.1984686,-0.05841701,-0.3922963,0.04292862,0.9036914,33.18963,-8.612915,-46.39506,986.1325
2.384925366,0.09133694,0.09780259,0.002556839,-0.3923181,0.04682796,0.9038166,33.18963,-8.612915,-46.39506,986.1412
2.389842987,0.2148437,-0.1391723,0.06351157,-0.385857,0.04427607,0.9129069,33.18963,-8.612915,-46.39506,986.1412
2.394760132,0.1529461,-0.02060022,0.002534517,-0.3917554,0.04620893,0.9110751,33.18963,-8.612915,-46.39506,986.1412
2.399678230,0.1528306,-0.3167524,0.002532889,-0.3942249,0.04382227,0.9071347,33.19524,-9.346204,-46.41753,986.1412
2.404595375,0.1527346,-0.02046268,-0.05842497,-0.3931972,0.04084311,0.9104294,33.19524,-9.346204,-46.41753,986.1412
2.409512520,0.09083717,-0.1388229,0.06342855,-0.3907415,0.04566687,0.9144481,33.19524,-9.346204,-46.41753,986.1412
2.414429665,0.0907995,-0.1980245,0.06335042,-0.3966671,0.04909825,0.9107226,33.19524,-9.346204,-46.41753,986.1412
2.421805859,0.2142587,-0.1979124,0.0633099,-0.3893187,0.04190777,0.9075184,33.19524,-9.346204,-46.41753,986.1412
2.426723003,0.2759061,0.03906957,0.06323183,-0.3923114,0.04729724,0.9048026,33.19524,-9.346204,-46.41753,986.1438
2.431640148,0.02854633,-0.07942106,0.06323037,-0.393743,0.04094753,0.9046108,33.19524,-9.346204,-46.41753,986.1438
2.436558247,0.0285478,0.2168312,0.06319061,-0.3893131,0.05009411,0.9131218,33.19524,-9.346204,-46.41753,986.1438
2.441475391,0.2139343,-0.07939574,0.06313178,-0.3907955,0.04528829,0.9086101,33.19524,-9.346204,-46.41753,986.1438
2.446393013,-0.2187327,-0.02015009,0.06309213,-0.3922647,0.04479665,0.9081208,33.19524,-9.346204,-46.41753,986.1438
2.451310158,0.02853295,0.03909557,-0.05884091,-0.3903381,0.04342467,0.9041767,33.56629,-8.982728,-46.40549,986.1438
2.456227303,0.152118,-0.07933924,0.002094919,-0.3946634,0.04564961,0.9135088,33.56629,-8.982728,-46.40549,986.1438
2.461144924,-0.03332373,-0.2569698,0.1239296,-0.3928181,0.04877321,0.903883,33.56629,-8.982728,-46.40549,986.1438
2.466062069,-0.1569057,-0.07914655,0.002015743,-0.3937012,0.04183166,0.9094941,33.56629,-8.982728,-46.40549,986.1448
2.470980167,0.3375658,0.1578166,0.1847876,-0.3873811,0.04774728,0.9091464,33.56629,-8.982728,-46.40549,986.1448
2.475897312,-0.09517894,0.03927006,-0.05903879,-0.3956738,0.04473847,0.9096035,33.56629,-8.982728,-46.40549,986.1448
2.480814457,-0.1569012,0.1577114,0.06285344,-0.3878545,0.04578412,0.9095728,33.56629,-8.982728,-46.40549,986.1448
2.485732079,0.02858241,-0.02006815,-0.05906036,-0.3918067,0.04534292,0.9052213,33.56629,-8.982728,-46.40549,986.1448
2.490649223,0.02858388,-0.02007414,0.001933078,-0.3898787,0.04203939,0.9002443,33.56629,-8.982728,-46.40549,986.1448
2.498024941,-0.0950072,-0.0793068,0.06284926,-0.3922497,0.04380369,0.9090599,33.19041,-8.615041,-46.33121,986.1448
2.502943039,0.214021,-0.02006115,0.06280973,-0.389264,0.04132059,0.9128401,33.19041,-8.615041,-46.33121,986.1448
2.507860184,0.2139059,-0.07931878,0.1236882,-0.3922415,0.04234144,0.9090129,33.19041,-8.615041,-46.33121,986.1454
2.512777805,0.1519701,-0.02005448,0.0626734,-0.3932656,0.04386739,0.9051861,33.19041,-8.615041,-46.33121,986.1454
2.517694950,0.1518746,0.1576573,0.06261493,-0.3917656,0.04719283,0.9106212,33.19041,-8.615041,-46.33121,986.1454
2.522612095,0.08997769,-0.1385697,0.06259476,-0.3942436,0.04048289,0.9031434,33.19041,-8.615041,-46.33121,986.1454
2.527529240,0.08990175,-0.1385572,0.001618291,-0.3923082,0.04921971,0.9063208,33.19041,-8.615041,-46.33121,986.1454
2.532446861,-0.09553976,-0.07927436,0.001598119,-0.3868893,0.04726429,0.9091268,33.19041,-8.615041,-46.33121,986.1454
2.537364483,0.02812319,-0.1384203,-0.05932085,-0.3917929,0.03953019,0.9030927,33.19041,-8.615041,-46.33121,986.1454
2.542282581,-0.1573182,-0.01990462,0.1235087,-0.3918176,0.04729259,0.905284,33.19041,-8.615041,-46.33121,986.1454
2.547199249,0.08994763,-0.01989219,-0.05938032,-0.3918445,0.04541548,0.9013398,33.19041,-8.615041,-46.33121,986.1464
2.554574967,-0.09544448,-0.0198549,-0.0594009,-0.3873876,0.04390236,0.9061099,33.18682,-8.24627,-46.38382,986.1464
2.559492588,0.08998105,0.03940918,0.184385,-0.392739,0.04717491,0.9111142,33.18682,-8.24627,-46.38382,986.1464
2.564409733,-0.03365902,-0.1382588,0.06243309,-0.3894291,0.04742355,0.8994421,33.18682,-8.24627,-46.38382,986.1464
2.569326878,0.08996502,-0.07893894,0.06239391,-0.3897828,0.04330213,0.9109657,33.18682,-8.24627,-46.38382,986.1464
2.574244976,0.213492,0.03953948,0.1232727,-0.3917532,0.04331163,0.9095256,33.18682,-8.24627,-46.38382,986.1464
2.579162121,0.02801177,0.1579621,-0.120515,-0.3942533,0.04387668,0.9042234,33.18682,-8.24627,-46.38382,986.1464
2.584079742,-0.09564759,-0.07903206,0.1232518,-0.3908559,0.05022595,0.9053701,33.18682,-8.24627,-46.38382,986.1473
2.588996887,0.2133811,-0.1382341,0.1231935,-0.3922943,0.04340697,0.9041922,33.18682,-8.24627,-46.38382,986.1473
2.593914032,-0.1574648,-0.07893284,0.06219818,-0.391359,0.04687308,0.901868,33.18682,-8.24627,-46.38382,986.1473
2.598831654,0.02792209,0.09879723,0.06219742,-0.3923331,0.04782093,0.9028774,33.19513,-8.627797,-45.94812,986.1473
2.603754520,-0.03389691,-0.07894527,-0.1815711,-0.3923139,0.044409,0.9027679,33.19513,-8.627797,-45.94812,986.1473
2.608666897,-0.09569652,0.0987848,-0.1205773,-0.391795,0.04242749,0.9046422,33.19513,-8.627797,-45.94812,986.1473
2.613584042,-0.03385435,0.03947111,0.1232088,-0.3932522,0.04480594,0.9071582,33.19513,-8.627797,-45.94812,986.1473
2.618501186,-0.03381367,-0.07894527,-0.05969918,-0.3917249,0.04325721,0.9124368,33.19513,-8.627797,-45.94812,986.1473
2.625877380,0.02809731,-0.01973081,0.123092,-0.3868729,0.04433978,0.9090329,33.19513,-8.627797,-45.94812,986.1483
2.630794525,0.02813793,-0.07895137,0.001216887,-0.3922905,0.0477393,0.9072443,33.19513,-8.627797,-45.94812,986.1483
2.635711670,-0.09546328,-0.07893894,-0.1206965,-0.3917863,0.04337512,0.9061291,33.19513,-8.627797,-45.94812,986.1483
2.640629291,-0.03369888,0.03953948,0.2450022,-0.3902569,0.04230472,0.9119087,33.19513,-8.627797,-45.94812,986.1483
2.645546913,0.1516491,0.2171951,0.001138059,-0.3937473,0.04336648,0.9056594,33.19513,-8.627797,-45.94812,986.1483
2.650464535,0.02795086,-0.07906925,0.1230116,-0.3887995,0.04571178,0.912977,33.56349,-8.616084,-46.39425,986.1483
2.655381679,0.08973479,-0.01978652,0.001098354,-0.3917871,0.04434087,0.9066457,33.56349,-8.616084,-46.39425,986.1483
2.660298824,0.08967842,-0.1382402,0.001078531,-0.391299,0.04868672,0.9092087,33.56349,-8.616084,-46.39425,986.1483
2.665215969,0.151443,-0.07897612,0.06195756,-0.3962591,0.05022262,0.9029867,33.56349,-8.616084,-46.39425,986.1526
2.670133591,-0.1575818,0.03953959,-0.05997478,-0.3897734,0.04328398,0.9119362,33.56349,-8.616084,-46.39425,986.1526
2.675050735,0.08964541,-0.01969962,-0.1817922,-0.3942846,0.04779416,0.9033781,33.56349,-8.616084,-46.39425,986.1526
2.679968834,0.02778761,-0.01966865,0.06205145,-0.3927482,0.0438174,0.9080934,33.56349,-8.616084,-46.39425,986.1526
2.684885979,-0.03399248,0.03952095,0.1229114,-0.39075,0.04134359,0.9109108,33.56349,-8.616084,-46.39425,986.1526
2.689803123,-0.03397114,0.09880356,0.2447084,-0.391246,0.04424553,0.9119791,33.56349,-8.616084,-46.39425,986.1526
2.697180748,-0.09576002,-0.138203,0.06172387,-0.3912759,0.04623149,0.9101009,33.19434,-8.625671,-46.01197,986.1526
2.702096462,-0.1575207,-0.1973864,0.1226222,-0.3936336,0.03977316,0.915254,33.19434,-8.625671,-46.01197,986.1526
2.707013607,-0.09563968,0.1580428,0.0616272,-0.3897814,0.04137059,0.9099327,33.19434,-8.625671,-46.01197,986.1553
2.711931705,0.2133695,-0.01971838,0.06160761,-0.3917669,0.04574872,0.9096038,33.19434,-8.625671,-46.01197,986.1553
2.716848850,0.08967135,-0.0196873,0.06158802,-0.3922649,0.04817232,0.9101712,33.19434,-8.625671,-46.01197,986.1553
2.721766472,-0.03394909,0.03953948,-0.121243,-0.3912816,0.0414208,0.9065479,33.19434,-8.625671,-46.01197,986.1553
2.726683617,0.02789309,-0.07889566,0.06160633,-0.3898098,0.041425,0.9070215,33.19434,-8.625671,-46.01197,986.1553
2.731600761,0.02787552,0.03958277,-0.1211864,-0.3923047,0.04776651,0.9057887,33.19434,-8.625671,-46.01197,986.1553
2.736518383,-0.2810911,-0.01967509,-0.2430228,-0.3922303,0.04617729,0.9125346,33.19434,-8.625671,-46.01197,986.1553
2.741435528,-0.2191325,-0.07893307,0.06179642,-0.3898242,0.04482786,0.9076162,33.19434,-8.625671,-46.01197,986.1553
2.746353626,-0.2189948,-0.07886492,0.06175759,-0.3937378,0.04334834,0.9066299,33.56899,-8.630966,-45.94731,986.1563
2.753729343,-0.1570452,0.1580671,-0.06013662,-0.3897645,0.04085596,0.9113727,33.56899,-8.630966,-45.94731,986.1563
2.758646488,-0.09514509,-0.138123,0.0008000188,-0.3937358,0.04382669,0.9071308,33.56899,-8.630966,-45.94731,986.1563
2.763564110,-0.09512416,-0.2565582,0.06167923,-0.3907682,0.04041411,0.9084536,33.56899,-8.630966,-45.94731,986.1563
2.768481255,-0.03322409,-0.1972012,0.06165964,-0.3897719,0.04135244,0.9109031,33.56899,-8.630966,-45.94731,986.1563
2.773398399,-0.09496587,-0.01941539,-0.06029166,-0.3946714,0.04373621,0.9115053,33.56899,-8.630966,-45.94731,986.1563
2.778321743,0.09038173,-0.1378879,0.1834565,-0.3879107,0.04830283,0.9052843,33.56899,-8.630966,-45.94731,986.1563
2.783233643,0.1521264,0.2175783,0.06148611,-0.3922127,0.04469689,0.9134581,33.56899,-8.630966,-45.94731,986.1563
2.788150787,0.3374158,-0.07868624,0.244259,-0.3873802,0.04340588,0.9065796,33.56899,-8.630966,-45.94731,986.1589
2.793068409,0.09003676,0.03986643,0.0004143681,-0.3927017,0.04469246,0.913462,33.56899,-8.630966,-45.94731,986.1589
2.797985554,-0.0953854,-0.1378764,0.1831873,-0.3927283,0.04860089,0.9131019,33.5682,-8.62884,-46.01116,986.1589
2.802902698,-0.03352401,0.2767669,-0.1215944,-0.3932691,0.04532058,0.9057181,33.5682,-8.62884,-46.01116,986.1589
2.810278892,0.02836728,-0.07866873,0.0003369938,-0.3887662,0.04227265,0.9143231,33.5682,-8.62884,-46.01116,986.1589
2.815196514,-0.03341317,0.03984677,0.0003176357,-0.3898458,0.04535156,0.9056911,33.5682,-8.62884,-46.01116,986.1589
2.820114136,-0.09519368,0.03982168,-0.0606197,-0.3936838,0.04372693,0.912468,33.5682,-8.62884,-46.01116,986.1589
2.825031280,-0.09513389,0.03981524,0.1222489,-0.3903592,0.04635824,0.9037855,33.5682,-8.62884,-46.01116,986.1613
2.829948425,0.02856767,-0.0194242,0.1221913,-0.3902821,0.04428159,0.9105157,33.5682,-8.62884,-46.01116,986.1613
2.834866047,-0.09507263,-0.1378781,0.000259387,-0.39323,0.04669213,0.9106172,33.5682,-8.62884,-46.01116,986.1613
2.839783192,-0.09503231,-0.01936261,0.06117719,-0.392289,0.04580778,0.9062113,33.5682,-8.62884,-46.01116,986.1613
2.844700336,-0.1567935,0.03990124,0.0002016033,-0.3902779,0.04186264,0.909467,33.18491,-8.60016,-46.77814,986.1613
2.849618435,0.0287094,0.09912779,0.24395,-0.3888257,0.0428689,0.9085163,33.18491,-8.60016,-46.77814,986.1613
2.854535580,-0.03311013,-0.1971369,8.650109E-05,-0.3898092,0.04383489,0.9085554,33.18491,-8.60016,-46.77814,986.1613
2.859453201,0.1523539,-0.07860272,0.06104273,-0.3912831,0.04335234,0.9075809,33.18491,-8.60016,-46.77814,986.1613
2.864370346,0.09053436,-0.1377492,0.182917,-0.3912751,0.04526572,0.9095843,33.18491,-8.60016,-46.77814,986.1613
2.871746063,-0.09483881,-0.01930215,-0.121788,-0.396152,0.04278439,0.9095448,33.18491,-8.60016,-46.77814,986.1622
2.876663685,-0.03301657,-0.1377933,-0.1826487,-0.3912759,0.04623149,0.9101009,33.18491,-8.60016,-46.77814,986.1622
2.881581306,-0.03297642,-0.01927785,0.1221135,-0.3906986,0.03883395,0.9147143,33.18491,-8.60016,-46.77814,986.1622
2.886498928,0.1523905,0.03996735,-0.06073638,-0.3942181,0.04429153,0.9081206,33.18491,-8.60016,-46.77814,986.1622
2.891416073,0.02873063,-0.1377382,0.1220941,-0.386906,0.04440326,0.9056365,33.18491,-8.60016,-46.77814,986.1622
2.896333218,-0.03306951,-0.01920428,0.1220556,-0.3927504,0.0467147,0.9096429,33.18491,-8.60016,-46.77814,986.1622
2.901250839,0.1522974,-0.0192852,0.06108011,-0.3883537,0.04676359,0.9091228,33.18491,-8.60016,-46.77814,986.1622
2.906167984,0.02863759,-0.01929164,0.0001428896,-0.3932422,0.04719769,0.9096624,33.18491,-8.60016,-46.77814,986.1675
2.911085129,0.0904599,-0.137727,0.1219597,-0.3902993,0.0390107,0.9054915,33.18491,-8.60016,-46.77814,986.1675
2.916002274,-0.09500135,0.09927302,0.1828202,-0.3893627,0.04392094,0.9041846,33.18491,-8.60016,-46.77814,986.1675
2.920920372,0.09038509,0.03999628,0.06086935,-0.3898019,0.04671404,0.9110752,33.18491,-8.60016,-46.77814,986.1675
2.925837517,0.09032831,-0.2561382,-8.687894E-05,-0.3922316,0.04473317,0.9115173,33.18491,-8.60016,-46.77814,986.1675
2.930755138,0.2139134,-0.1374926,-8.682082E-05,-0.3912993,0.0429012,0.9056244,33.18491,-8.60016,-46.77814,986.1675
2.935672283,-0.03342691,0.2179733,-0.06098562,-0.3917878,0.04530665,0.9071622,33.18491,-8.60016,-46.77814,986.1675
2.940589428,0.09013882,-0.07827295,0.1827438,-0.3917261,0.04181309,0.9114195,33.18491,-8.60016,-46.77814,986.1675
2.945507050,0.02831958,-0.1967271,0.0607739,-0.3912438,0.04134823,0.9104295,32.81857,-8.976389,-46.4071,986.1685
2.952883244,0.09005557,0.0402787,-0.000239651,-0.3937733,0.04968478,0.9068333,32.81857,-8.976389,-46.4071,986.1685
2.957800865,0.2753063,0.04027203,0.06071679,-0.3912358,0.04326164,0.9124329,32.81857,-8.976389,-46.4071,986.1685
2.962718010,0.1515887,-0.1374152,-0.06119562,-0.3882629,0.04224987,0.9157748,32.81857,-8.976389,-46.4071,986.1685
2.967635155,0.08969198,0.04033306,0.06065967,-0.3888655,0.04246311,0.9041338,32.81857,-8.976389,-46.4071,986.1685
2.972552776,0.1514371,0.09955939,-0.1221707,-0.391276,0.03707031,0.9044662,32.81857,-8.976389,-46.4071,986.1685
2.977469921,0.08954053,-0.137398,0.1216355,-0.387855,0.04337424,0.908039,32.81857,-8.976389,-46.4071,986.1685
2.982387066,0.2129902,-0.1373303,0.1825536,-0.3908195,0.03954811,0.9025998,32.81857,-8.976389,-46.4071,986.1685
2.987305164,0.02752962,0.1589025,-0.000353329,-0.3912853,0.04624962,0.9091304,32.81857,-8.976389,-46.4071,986.1694
2.992222309,0.2128973,-0.1372881,0.2434146,-0.3926975,0.04227353,0.9124132,32.81857,-8.976389,-46.4071,986.1694
2.997139931,0.2127441,-0.0780432,0.06054596,-0.3907791,0.04236379,0.9085162,33.55788,-7.882794,-46.37177,986.1694
3.002057076,0.02722551,0.09970495,0.1823631,-0.3908141,0.05111009,0.9102535,33.55788,-7.882794,-46.37177,986.1694
3.006974220,0.02715017,-0.01882376,-0.0005055198,-0.3883443,0.04674546,0.9100932,33.55788,-7.882794,-46.37177,986.1694
3.011891365,0.08895402,-0.01888637,0.1213691,-0.3921792,0.03788212,0.9127538,33.55788,-7.882794,-46.37177,986.1694
3.016808987,0.02709669,-0.01885597,-0.06149945,-0.389801,0.04237264,0.9085084,33.55788,-7.882794,-46.37177,986.1694
3.024185658,0.2124755,-0.01883823,0.06031794,-0.3976328,0.04520819,0.9096346,33.55788,-7.882794,-46.37177,986.1694
3.029102802,-0.0965682,-0.1964883,0.06031835,-0.3942831,0.04586263,0.9023451,33.55788,-7.882794,-46.37177,986.1705
3.034019947,0.08885804,-0.01870295,0.1821547,-0.3922836,0.04483293,0.90618,33.55788,-7.882794,-46.37177,986.1705
3.038937092,0.2124246,0.2181851,0.121084,-0.3907518,0.0374896,0.9083597,33.55788,-7.882794,-46.37177,986.1705
3.043854713,0.1505479,0.09965636,0.121008,-0.3946874,0.03990942,0.9074984,33.56349,-8.616084,-46.39425,986.1705
3.048771858,0.3976398,0.09959375,0.1209511,-0.3902995,0.04238635,0.9075418,33.56349,-8.616084,-46.39425,986.1705
3.053689957,0.08840206,0.09956843,0.05993796,-0.3976313,0.04327666,0.9086017,33.56349,-8.616084,-46.39425,986.1705
3.058607101,0.3972762,-0.01894152,0.1208183,-0.3922518,0.04332534,0.9085591,33.56349,-8.616084,-46.39425,986.1705
3.063524246,0.4588474,-0.07810682,0.1207233,-0.3902584,0.04423625,0.9129417,33.56349,-8.616084,-46.39425,986.1705
3.068441868,0.3967383,0.09954832,0.3034397,-0.3887816,0.04085574,0.9118502,33.56349,-8.616084,-46.39425,986.1714
3.075817585,0.3963645,0.09943587,0.1204955,-0.392757,0.04286978,0.9066065,33.56349,-8.616084,-46.39425,986.1714
3.080734730,0.4578976,-0.1967545,0.3031929,-0.3926946,0.03841045,0.9103472,33.56349,-8.616084,-46.39425,986.1714
3.085652828,0.4576099,-0.07820209,0.1202102,-0.3912498,0.03991319,0.9089269,33.56349,-8.616084,-46.39425,986.1714
3.090569973,0.3337001,0.04035036,0.4248012,-0.3898207,0.04337468,0.9070841,33.56349,-8.616084,-46.39425,986.1714
3.095487595,0.5188754,-0.1374114,0.1199252,-0.3913082,0.04532921,0.9061879,33.18963,-8.612915,-46.39506,986.1714
3.100404739,0.2714018,0.09958844,0.05887442,-0.3922281,0.04328,0.9109851,33.18963,-8.612915,-46.39506,986.1714
3.105321884,0.4565774,-0.01897735,0.363504,-0.3937074,0.04377227,0.910042,33.18963,-8.612915,-46.39506,986.1714
3.110239506,0.2091429,-0.07814265,0.05868567,-0.3923363,0.04589847,0.9013593,33.18963,-8.612915,-46.39506,986.1737
3.115156651,0.3943577,-0.07813078,0.1805039,-0.3888697,0.04488205,0.9051825,33.18963,-8.612915,-46.39506,986.1737
3.120074749,0.2705264,-0.07810038,-0.06335803,-0.3937671,0.04774417,0.9062855,33.18963,-8.612915,-46.39506,986.1737
3.124991894,0.3321579,-0.01887416,-0.002400231,-0.3932022,0.04422783,0.9119946,33.18963,-8.612915,-46.39506,986.1737
3.129909039,0.2083657,-0.07813259,0.05853842,-0.3918067,0.04534292,0.9052213,33.18963,-8.612915,-46.39506,986.1737
3.137285233,0.2081306,-0.01891892,0.1804341,-0.3902673,0.04666426,0.9135052,33.18963,-8.612915,-46.39506,986.1737
3.142202377,0.2080192,-0.07817734,-0.00243325,-0.3898361,0.04195777,0.9046111,33.56899,-8.630966,-45.94731,986.1737
3.147119522,0.1461065,0.2772514,-0.002431738,-0.3970597,0.0402296,0.9152967,33.56899,-8.630966,-45.94731,986.1747
3.152037144,0.2077773,0.09943395,0.1803429,-0.3927734,0.04579429,0.9067004,33.56899,-8.630966,-45.94731,986.1747
3.156954765,0.1459035,-0.07832754,-0.002505218,-0.3893027,0.04573456,0.9115253,33.56899,-8.630966,-45.94731,986.1747
3.161876679,0.2075939,-0.2559774,-0.002522803,-0.3888197,0.04430394,0.9100189,33.56899,-8.630966,-45.94731,986.1747
3.166789532,0.4546499,0.04034866,0.1193722,-0.3927084,0.04422319,0.9124758,33.56899,-8.630966,-45.94731,986.1747
3.171706677,0.2071973,0.09955634,-0.002538818,-0.3908363,0.04922391,0.9067944,33.56899,-8.630966,-45.94731,986.1747
3.176623821,0.4541953,0.0402422,0.1192988,-0.3951553,0.03697142,0.9078937,33.56899,-8.630966,-45.94731,986.1747
3.181541443,0.5775324,-0.0782491,0.05826755,-0.3917905,0.04579406,0.9071779,33.56899,-8.630966,-45.94731,986.1747
3.186458588,0.5154069,0.04024751,0.1191489,-0.3903044,0.04577105,0.909107,33.56899,-8.630966,-45.94731,986.1756
3.191376686,0.3297175,0.09943654,0.1190932,-0.3947423,0.04387226,0.9042273,33.56899,-8.630966,-45.94731,986.1756
3.196293831,0.3295104,0.09937416,0.05811954,-0.3937878,0.04392646,0.9017935,33.19704,-8.273909,-45.55379,986.1756
3.203669548,0.3292194,-0.07828832,0.05804563,-0.3908214,0.04823093,0.9077335,33.19704,-8.273909,-45.55379,986.1756
3.208587170,0.3289931,0.09944129,0.05804743,-0.394643,0.0436818,0.9144166,33.19704,-8.273909,-45.55379,986.1756
3.213504314,0.266985,-0.07828301,0.05797267,-0.386857,0.03900539,0.9074052,33.19704,-8.273909,-45.55379,986.1756
3.218421459,0.2050352,0.1586611,0.1188925,-0.3956584,0.04615538,0.9120765,33.19704,-8.273909,-45.55379,986.1756
3.223339558,0.3284899,-0.01908188,0.1187796,-0.3922952,0.04774838,0.9067591,33.19704,-8.273909,-45.55379,986.1756
3.228256702,0.1428985,-0.0783029,-0.003131043,-0.3946539,0.04563147,0.9144791,33.19704,-8.273909,-45.55379,986.175
3.233174324,0.2045715,-0.07829092,0.1187261,-0.3912851,0.04287399,0.9070801,33.19704,-8.273909,-45.55379,986.175
3.238091469,0.2044818,0.04022434,-0.1250779,-0.3922567,0.04671006,0.9101242,33.19704,-8.273909,-45.55379,986.175
3.243008614,0.1424742,-0.1374628,0.1186918,-0.3879005,0.04731892,0.9057382,32.50142,-8.240459,-46.3853,986.175
3.247926235,0.2042056,-0.01892898,-0.003218794,-0.3927248,0.0471477,0.9125698,32.50142,-8.240459,-46.3853,986.175
3.252843380,0.2040967,-0.1373831,0.1795372,-0.3912249,0.04131196,0.9123703,32.50142,-8.240459,-46.3853,986.175
3.257761478,0.1422059,-0.1372781,0.05760757,-0.3864446,0.04349635,0.9022049,32.50142,-8.240459,-46.3853,986.175
3.265137196,0.2656554,0.0404202,-0.06426356,-0.3888732,0.04633524,0.9057146,32.50142,-8.240459,-46.3853,986.175
3.270054340,0.08012291,-0.1373042,-0.06426147,-0.3927097,0.04277908,0.9114586,32.50142,-8.240459,-46.3853,986.1759
3.274971962,0.08007256,0.09967693,0.1185712,-0.3923189,0.04779372,0.9043331,32.50142,-8.240459,-46.3853,986.1759
3.279889107,0.01824023,-0.07806614,-0.003358457,-0.3927579,0.04721119,0.9091733,32.50142,-8.240459,-46.3853,986.1759
3.284806252,0.1418317,0.04041183,0.05754252,-0.3883077,0.04522879,0.9129575,32.50142,-8.240459,-46.3853,986.1759
3.289724350,-0.04366178,0.04044235,-0.003373339,-0.3932691,0.04532058,0.9057181,32.50142,-8.240459,-46.3853,986.1759
3.294641495,-0.1054553,0.09965003,-0.06430838,-0.3966863,0.043349,0.9051975,33.93734,-8.619254,-46.39344,986.1759
3.299558640,0.141778,0.09960607,-0.06424883,-0.3937467,0.04577636,0.9071934,33.93734,-8.619254,-46.39344,986.1759
3.304476261,0.141689,-0.01888524,-0.1251839,-0.3858886,0.04240804,0.9084775,33.93734,-8.619254,-46.39344,986.1759
3.309393406,0.2651447,-0.07812501,-0.06422555,-0.3878841,0.04439442,0.9056443,33.93734,-8.619254,-46.39344,986.1802
3.314310551,0.07957373,-0.01882433,0.2404814,-0.3907915,0.04624498,0.9096118,33.93734,-8.619254,-46.39344,986.1802
3.319228172,0.07956258,0.09961635,0.1794506,-0.3903681,0.04878626,0.9043489,33.93734,-8.619254,-46.39344,986.1802
3.324145794,0.1412752,-0.07812671,0.240275,-0.3922363,0.04474224,0.911032,33.93734,-8.619254,-46.39344,986.1802
3.331521988,0.2030212,0.1588045,-0.003565961,-0.388903,0.04832119,0.9038364,33.93734,-8.619254,-46.39344,986.1802
3.336439133,0.2028937,0.04027588,0.1182914,-0.3864579,0.05171897,0.9058674,33.93734,-8.619254,-46.39344,986.1802
3.341356278,-0.04442021,-0.1374485,0.0573374,-0.3932477,0.04817253,0.9096937,33.18953,-7.894507,-45.92564,986.1802
3.346273899,-0.167937,-0.01889609,-0.06457292,-0.3947676,0.04922479,0.9048846,33.18953,-7.894507,-45.92564,986.1802
3.351191044,-0.2296524,-0.01892141,-0.003614356,-0.3894237,0.04644872,0.8994108,33.18953,-7.894507,-45.92564,986.1795
3.356109142,-0.1059246,-0.1966085,-0.003688649,-0.3838411,0.04032188,0.9166479,33.18953,-7.894507,-45.92564,986.1795
3.361026287,0.07956577,0.04039127,0.05728912,-0.3898318,0.04869999,0.909197,33.18953,-7.894507,-45.92564,986.1795
3.365943432,-0.04406776,-0.1964918,0.05725314,-0.3927291,0.04040547,0.9079838,33.18953,-7.894507,-45.92564,986.1795
3.370861054,-0.04405951,0.04052654,0.118116,-0.3902881,0.04284656,0.9090131,33.18953,-7.894507,-45.92564,986.1795
3.375778198,0.07953228,0.04048247,0.1789024,-0.3937107,0.0418498,0.9085237,33.18953,-7.894507,-45.92564,986.1795
3.380695343,0.07946289,-0.01875742,0.1179103,-0.3942632,0.04148493,0.9017191,33.18953,-7.894507,-45.92564,986.1795
3.385613442,0.141195,0.04046868,0.1787542,-0.3903632,0.04540155,0.9027838,33.18953,-7.894507,-45.92564,986.1795
3.390531540,0.01748393,0.09960189,0.0567868,-0.3927341,0.0437902,0.909549,33.56619,-8.264321,-45.93607,986.1801
3.397906780,-0.04433407,0.04029362,-0.06517927,-0.3908057,0.04627219,0.9081562,33.56619,-8.264321,-45.93607,986.1801
3.402823925,-0.1678315,-0.01892751,-0.004258609,-0.3947186,0.04382691,0.9066533,33.56619,-8.264321,-45.93607,986.1801
3.407741070,0.07942162,-0.07811145,-0.004255935,-0.3917136,0.04709306,0.9159585,33.56619,-8.264321,-45.93607,986.1801
3.412658692,-0.04421179,0.1588325,-0.004329821,-0.3957206,0.04723905,0.9062853,33.56619,-8.264321,-45.93607,986.1801
3.417575836,0.07939951,-0.01892909,0.1175089,-0.3912438,0.04134823,0.9104295,33.56619,-8.264321,-45.93607,986.1801
3.422493935,0.01756753,0.09954888,0.05655538,-0.3932059,0.04905667,0.9145771,33.56619,-8.264321,-45.93607,986.1801
3.427411080,-0.2296106,-0.07811971,-0.004398127,-0.3893338,0.04627639,0.9086298,33.56619,-8.264321,-45.93607,986.1784
3.432328224,0.1412843,-0.01889338,-0.06531338,-0.3932413,0.04285628,0.9070956,33.56619,-8.264321,-45.93607,986.1784
3.437245369,-0.04417011,-0.0781518,0.05658278,-0.3922861,0.0419447,0.9041452,33.56619,-8.264321,-45.93607,986.1784
3.442162991,0.1412232,-0.07812129,0.1783832,-0.3908221,0.0491967,0.90825,32.82127,-8.624627,-45.94892,986.1784
3.447080135,0.07937185,0.04035668,0.1782712,-0.3903044,0.04577105,0.909107,32.82127,-8.624627,-45.94892,986.1784
3.451998234,0.07932198,-0.01892027,-0.1264117,-0.3966959,0.04674278,0.9062774,32.82127,-8.624627,-45.94892,986.1784
3.456915379,-0.04433083,-0.01892694,0.1173972,-0.3916808,0.04124404,0.9157706,32.82127,-8.624627,-45.94892,986.1784
3.461832523,0.140985,-0.07814807,-0.004570025,-0.3902935,0.04382139,0.9090444,32.82127,-8.624627,-45.94892,986.1784
3.469208717,0.326373,-0.01884151,-0.004623157,-0.390799,0.04674146,0.9091421,32.82127,-8.624627,-45.94892,986.1811
3.474125862,0.2644053,-0.1372957,-0.004581942,-0.3878177,0.0408918,0.9103868,32.82127,-8.624627,-45.94892,986.1811
3.479043007,0.07883482,0.1588999,0.1781558,-0.3932948,0.04488757,0.9027913,32.82127,-8.624627,-45.94892,986.1811
3.483961105,0.1405868,0.1588,0.1171641,-0.3922226,0.04230516,0.9109538,32.82127,-8.624627,-45.94892,986.1811
3.488878250,0.2641014,0.04021553,0.05617254,-0.3923072,0.04487828,0.903754,32.82127,-8.624627,-45.94892,986.1811
3.493795872,0.1403714,0.04019022,-0.004780726,-0.3907754,0.04669612,0.9115682,33.18963,-8.612915,-46.39506,986.1811
3.498713017,0.01668029,0.09941666,0.05615943,-0.3912709,0.04284678,0.9085357,33.18963,-8.612915,-46.39506,986.1811
3.503630161,0.2020548,-0.01907465,-0.004793834,-0.390756,0.03990855,0.9094083,33.18963,-8.612915,-46.39506,986.1811
3.508547783,0.3872935,-0.07825848,-0.0656897,-0.3859037,0.04677665,0.9095887,33.18963,-8.612915,-46.39506,986.182
3.513464928,0.1398831,-0.1374238,0.1780618,-0.3922721,0.04529315,0.9076512,33.18963,-8.612915,-46.39506,986.182
3.518383026,0.2016549,-0.01888999,0.05613313,-0.3937622,0.04435945,0.9047203,33.18963,-8.612915,-46.39506,986.182
3.523300171,0.3868938,0.04033634,-0.004820139,-0.3897383,0.04369885,0.9158334,33.18963,-8.612915,-46.39506,986.182
3.528217316,0.3248493,0.2180288,0.1779369,-0.3889299,0.04644407,0.8998922,33.18963,-8.612915,-46.39506,986.182
3.535593510,0.07733737,-0.07826742,-0.06582619,-0.3903077,0.0438486,0.9075888,33.18963,-8.612915,-46.39506,986.182
3.540510655,0.07732764,-0.07819972,0.1170075,-0.3898012,0.04574827,0.9105588,33.56349,-8.616084,-46.39425,986.182
3.545427799,0.1390417,-0.01895474,-0.06582003,-0.3883828,0.04778378,0.9067281,33.56349,-8.616084,-46.39425,986.182
3.550345898,-0.04646943,0.09952323,0.05607648,-0.3903152,0.04434508,0.9071193,33.56349,-8.616084,-46.39425,986.1814
3.555263043,0.2007268,0.1586937,-0.06579474,-0.3878791,0.05017088,0.9097137,33.56349,-8.616084,-46.39425,986.1814
3.560180187,0.1387798,0.09939823,0.05612087,-0.3897816,0.04474623,0.9119831,33.56349,-8.616084,-46.39425,986.1814
3.565097809,0.2004359,0.09935439,0.1779408,-0.3927564,0.04527965,0.9081403,33.56349,-8.616084,-46.39425,986.1814
3.570014954,0.2003876,0.09927335,-0.1268185,-0.3897681,0.04568479,0.9139552,33.56349,-8.616084,-46.39425,986.1814
3.574932099,0.1384797,-0.01923649,-0.004902804,-0.3927333,0.04282443,0.9090325,33.56349,-8.616084,-46.39425,986.1814
3.579849720,0.2001748,-0.137616,-0.2486292,-0.3879092,0.0463713,0.9042513,33.56349,-8.616084,-46.39425,986.1814
3.584767342,0.138267,-0.0783524,0.1171116,-0.3898018,0.0433384,0.9090248,33.56349,-8.616084,-46.39425,986.1814
3.589684963,0.1381801,-0.1375734,-0.06569679,-0.3912597,0.04668262,0.9120573,32.81577,-8.609745,-46.39586,986.1806
3.594602108,0.1998754,0.04021203,0.05618048,-0.3912926,0.04337047,0.9066105,32.81577,-8.609745,-46.39586,986.1806
3.599526882,0.1997498,0.04016818,-0.00477279,-0.392705,0.04277001,0.9119438,32.81577,-8.609745,-46.39586,986.1806
3.604436874,0.2613675,-0.01907149,-0.004731516,-0.3898314,0.04194869,0.9050964,32.81577,-8.609745,-46.39586,986.1806
3.609354019,0.1376198,0.1586396,0.05617031,-0.3897517,0.04276029,0.9138613,32.81577,-8.609745,-46.39586,986.1806
3.614272118,0.1993154,0.04012964,0.05611587,-0.3937888,0.04826787,0.9043604,32.81577,-8.609745,-46.39586,986.1806
3.619189262,0.3228125,-0.01912867,0.05608061,-0.3916923,0.04078384,0.9142994,32.81577,-8.609745,-46.39586,986.1806
3.624106407,0.1990261,-0.01909805,0.05602622,-0.3932211,0.04426411,0.9100537,32.81577,-8.609745,-46.39586,986.1806
3.631482601,0.198858,0.09940468,0.1169489,-0.3902895,0.04477808,0.9100462,32.81577,-8.609745,-46.39586,986.1815
3.636399746,0.2605345,-0.01906798,-0.06591688,-0.3908415,0.04682309,0.9047753,32.81577,-8.609745,-46.39586,986.1815
3.641316891,0.1985694,0.04015835,0.2387719,-0.3917587,0.04428646,0.9095569,32.81105,-8.59699,-46.77895,986.1815
3.646234035,0.1984446,0.09936614,0.05582965,-0.392759,0.04239143,0.9061056,32.81105,-8.59699,-46.77895,986.1815
3.651152134,0.2601602,0.09928511,-0.005161697,-0.3937555,0.04482873,0.9057064,32.81105,-8.59699,-46.77895,986.1815
3.656069279,0.1363939,0.1584371,0.05575954,-0.3912751,0.04526572,0.9095843,32.81105,-8.59699,-46.77895,986.1815
3.660986900,0.1362888,-0.0193243,-0.005193495,-0.38984,0.05016224,0.9092439,32.81105,-8.59699,-46.77895,986.1815
3.665904045,0.07444058,-0.07856385,-0.06614653,-0.3937888,0.04826787,0.9043604,32.81105,-8.59699,-46.77895,986.1815
3.670821190,0.1361759,0.09911016,0.055731,-0.3888262,0.04045901,0.9069825,32.81105,-8.59699,-46.77895,986.1826
3.675738811,0.2596932,-0.07859527,-0.005222038,-0.3912378,0.04278329,0.9119322,32.81105,-8.59699,-46.77895,986.1826
3.683115005,0.1977053,0.09914067,-0.005274531,-0.3922545,0.04381276,0.9085748,32.81105,-8.59699,-46.77895,986.1826
3.688032627,0.1976006,-0.07856487,0.1775402,-0.3907475,0.04423182,0.9129456,33.19233,-8.261152,-45.93688,986.1826
3.692949772,0.1974764,-0.01931966,-0.005344465,-0.3898331,0.04725587,0.9081797,33.19233,-8.261152,-45.93688,986.1826
3.697866917,0.1356091,-0.07854057,-0.06633569,-0.3912562,0.04522944,0.9115252,33.19233,-8.261152,-45.93688,986.1826
3.702784538,0.01197924,0.09917063,0.05552283,-0.3898139,0.04384395,0.9080701,33.19233,-8.261152,-45.93688,986.1826
3.707701683,0.1354776,0.09908971,0.05552626,-0.3902928,0.04285563,0.908528,33.19233,-8.261152,-45.93688,986.1826
3.712619781,0.07361046,-0.1970633,-0.06632549,-0.3854057,0.04435305,0.9090213,33.19233,-8.261152,-45.93688,986.1775
3.717536926,-0.05007754,-0.1377623,-0.005365829,-0.3923385,0.04879577,0.9029087,33.19233,-8.261152,-45.93688,986.1775
3.722454071,0.07355687,-0.2561418,-0.06628044,-0.3892918,0.04378489,0.9114627,33.19233,-8.261152,-45.93688,986.1775
3.727371693,0.1971136,-0.1376079,-0.06627706,-0.3942351,0.04480616,0.9066807,33.19233,-8.261152,-45.93688,986.1775
3.732288837,-0.0501579,-0.01905533,-0.1271534,-0.3888572,0.05016202,0.9097214,33.19233,-8.261152,-45.93688,986.1775
3.739664555,-0.1119315,0.04021429,0.1165618,-0.3883612,0.04726008,0.9086533,33.19052,-9.333448,-46.80062,986.1775
3.744582653,-0.1119,-0.1375101,-0.005289995,-0.3951427,0.0422514,0.9124326,33.19052,-9.333448,-46.80062,986.1775
3.749499798,0.07351643,0.09941541,0.1775056,-0.3913701,0.05219841,0.903981,33.19052,-9.333448,-46.80062,986.1784
3.754417419,-0.05011327,-0.07834607,-0.005417334,-0.394699,0.04282486,0.9080775,33.19052,-9.333448,-46.80062,986.1784
3.759334564,0.01170031,0.09936501,0.05559979,-0.3907751,0.04332048,0.9095178,33.19052,-9.333448,-46.80062,986.1784
3.764251709,0.07347498,0.09932116,0.1773626,-0.3908172,0.04581198,0.9066849,33.19052,-9.333448,-46.80062,986.1784
3.769169331,-0.05017417,0.04002578,0.1163906,-0.391702,0.04417762,0.9153793,33.19052,-9.333448,-46.80062,986.1784
3.774086475,0.1970438,0.04000069,0.05539947,-0.3928127,0.04779837,0.9038517,33.19052,-9.333448,-46.80062,986.1784
3.779004574,0.01153505,-0.07843468,0.05540296,-0.3938233,0.05026289,0.9019969,33.19052,-9.333448,-46.80062,986.1784
3.783921719,-0.05023484,0.0400807,-0.005569002,-0.3917313,0.04857346,0.915035,33.19052,-9.333448,-46.80062,986.1784
3.788838863,0.07336084,0.04005561,0.1772459,-0.3893074,0.04574363,0.9110401,33.18682,-8.24627,-46.38382,986.179
3.793756008,0.1969177,-0.0783984,-0.005657712,-0.3883669,0.0424494,0.9051003,33.18682,-8.24627,-46.38382,986.179
3.798673630,0.01140895,0.09936862,-0.06661046,-0.3961624,0.04714393,0.9111412,33.18682,-8.24627,-46.38382,986.179
3.803590774,0.1349271,-0.137533,0.1162045,-0.3893679,0.05068129,0.9078001,33.18682,-8.24627,-46.38382,986.179
3.810967445,-0.05044915,0.09937993,0.1162099,-0.3917704,0.0472019,0.910136,33.18682,-8.24627,-46.38382,986.179
3.815884590,0.07316604,0.1585505,-0.1275734,-0.3922355,0.04377648,0.9105155,33.18682,-8.24627,-46.38382,986.179
3.820801735,0.01133808,-0.01921095,0.05526077,-0.3937395,0.04865552,0.9097132,33.18682,-8.24627,-46.38382,986.179
3.825719356,-0.1740152,-0.1968794,-0.1276045,-0.3932579,0.04915643,0.9092398,33.18682,-8.24627,-46.38382,986.179
3.830636501,-0.05038052,-0.07834551,-0.005688319,-0.389797,0.04332933,0.9095101,33.18682,-8.24627,-46.38382,986.1783
3.835553646,-0.173913,0.1586359,-0.005684773,-0.392753,0.04382648,0.9076082,33.18682,-8.24627,-46.38382,986.1783
3.840471745,-0.1119246,-0.07834008,-0.005642917,-0.3931716,0.04127612,0.9133563,32.81105,-8.59699,-46.77895,986.1783
3.845388889,0.1970948,0.09935246,0.1162541,-0.3923221,0.04587127,0.9028149,32.81105,-8.59699,-46.77895,986.1783
3.850306511,-0.05019604,0.04005709,0.1161427,-0.3893635,0.0448867,0.9047011,32.81105,-8.59699,-46.77895,986.1783
3.855223656,0.01159814,-0.1376486,0.05515179,-0.3927296,0.04715677,0.9120846,32.81105,-8.59699,-46.77895,986.1783
3.860140800,0.01162968,0.0993328,0.1160734,-0.3913142,0.04389417,0.9046853,32.81105,-8.59699,-46.77895,986.1783
3.865058422,0.3205326,0.0993076,0.176976,-0.3922669,0.04769396,0.9096703,32.81105,-8.59699,-46.77895,986.1783
3.869975567,0.134985,0.1585154,0.0550671,-0.3922731,0.04963457,0.9102182,32.81105,-8.59699,-46.77895,986.1826
3.874893665,0.3203629,-0.07836743,-0.005942938,-0.3918343,0.04443157,0.9017936,32.81105,-8.59699,-46.77895,986.1826
3.879810810,0.07295574,0.1585395,-0.005920063,-0.3903381,0.04342467,0.9041767,32.81105,-8.59699,-46.77895,986.1826
3.884727955,0.1347114,-0.1969025,0.05498251,-0.3903221,0.04725145,0.9081836,32.81105,-8.59699,-46.77895,986.1826
3.889645100,0.1345879,-0.01913557,-0.005989154,-0.3962209,0.04339878,0.9027676,32.81577,-8.609745,-46.39586,986.1826
3.897021294,0.01103286,0.04022706,-0.06695893,-0.394254,0.04484244,0.9047399,32.81577,-8.609745,-46.39586,986.1826
3.901938438,0.1963721,0.2179008,-0.005998862,-0.3927508,0.04092917,0.9060586,32.81577,-8.609745,-46.39586,986.1826
3.906856537,0.0726846,0.04010206,0.05494205,-0.3922947,0.05015826,0.9082929,32.81577,-8.609745,-46.39586,986.1826
3.911773682,0.1961836,0.04005833,0.1158447,-0.394715,0.03899807,0.9040707,32.81577,-8.609745,-46.39586,986.1837
3.916690826,-0.05110675,-0.01916269,-0.006140676,-0.3937203,0.04524359,0.9096037,32.81577,-8.609745,-46.39586,986.1837
3.921608448,0.1960924,-0.07838371,-0.127992,-0.3932868,0.04680097,0.9047947,32.81577,-8.609745,-46.39586,986.1837
3.926526070,0.1341677,0.2177934,0.1157987,-0.3907719,0.04524294,0.9110361,32.81577,-8.609745,-46.39586,986.1837
3.931442738,0.1341028,-0.07849005,0.2376386,-0.3923065,0.04391252,0.9032375,32.81577,-8.609745,-46.39586,986.1837
3.936360836,0.134038,0.1584913,-0.006221015,-0.3947562,0.04968499,0.9063558,33.18682,-8.24627,-46.38382,986.1837
3.941277981,0.01033145,0.3361467,-0.006178811,-0.3927696,0.05012663,0.9097524,33.18682,-8.24627,-46.38382,986.1837
3.946195602,0.1956905,0.217488,0.1766173,-0.3898012,0.04574827,0.9105588,33.18682,-8.24627,-46.38382,986.1837
3.953571320,0.2574435,0.09894731,-0.0672019,-0.389239,0.04271937,0.9162835,33.18682,-8.24627,-46.38382,986.1803
3.958488464,-0.05172557,-0.01959949,-0.006260807,-0.3927299,0.04137124,0.9085004,33.18682,-8.24627,-46.38382,986.1803
3.963406086,0.0719099,-0.07882028,-0.006237728,-0.3922199,0.04181773,0.9109381,33.18682,-8.24627,-46.38382,986.1803
3.968323708,0.07184529,0.03967668,-0.0671901,-0.3937042,0.04569474,0.9115602,33.18682,-8.24627,-46.38382,986.1803
3.973241329,0.01001815,0.03963317,-0.00630647,-0.3947525,0.04485615,0.9037734,33.18682,-8.24627,-46.38382,986.1803
3.978158474,0.2571789,-0.07882062,0.1765281,-0.3907859,0.0418945,0.9075301,33.18682,-8.24627,-46.38382,986.1803
3.983075619,0.1951965,-0.0788083,0.1155183,-0.3912122,0.04321629,0.914859,33.18682,-8.24627,-46.38382,986.1803
3.987993240,0.1332724,-0.1380476,0.05452771,-0.3882751,0.04275542,0.9148201,33.57932,-9.377011,-45.58669,986.1803
3.992911816,0.1331692,0.03971963,-0.0673808,-0.3917938,0.0438716,0.9056596,33.57932,-9.377011,-45.58669,986.1829
3.997827530,-0.05231885,-0.07875281,0.05451667,-0.3903261,0.04629475,0.9071819,33.57932,-9.377011,-45.58669,986.1829
4.002745628,0.1949005,0.03974404,-0.128329,-0.389856,0.04633546,0.9052372,33.57932,-9.377011,-45.58669,986.1829
4.007662773,0.132996,-0.01947675,-0.06734955,-0.3902895,0.04477808,0.9100462,33.57932,-9.377011,-45.58669,986.1829
4.012579918,0.256496,-0.01952038,-0.006408405,-0.3907806,0.04429531,0.9095491,33.57932,-9.377011,-45.58669,986.1829
4.017497540,0.1327707,-0.01950817,0.05453274,-0.38934,0.048217,0.9091775,33.57932,-9.377011,-45.58669,986.1829
4.024873257,0.3179724,0.09886459,-0.006398348,-0.3922087,0.0456536,0.9144598,33.57932,-9.377011,-45.58669,986.1829
4.029790878,0.1941697,0.03960673,0.1154417,-0.3893465,0.04437207,0.9061411,33.57932,-9.377011,-45.58669,986.1822
4.034708500,0.2558297,-0.07880977,0.05447028,-0.3941889,0.03989571,0.908465,33.56438,-9.336617,-46.79981,986.1822
4.039626122,0.193887,-0.07879745,0.1153732,-0.3893082,0.0467094,0.9115566,33.56438,-9.336617,-46.79981,986.1822
4.044543266,0.2555667,0.1581842,0.05436358,-0.394696,0.04812298,0.9116462,33.56438,-9.336617,-46.79981,986.1822
4.049460411,0.008219667,-0.07882875,-0.006607741,-0.3927503,0.04333906,0.9075925,33.56438,-9.336617,-46.79981,986.1822
4.054377556,0.008175625,0.03964967,-0.006584459,-0.3913234,0.04969783,0.9072992,33.56438,-9.336617,-46.79981,986.1822
4.059295177,0.06995253,-0.07880411,0.05437596,-0.3888799,0.04586596,0.9047285,33.56438,-9.336617,-46.79981,986.1822
4.064212799,0.1317101,-0.07877327,-0.06749418,-0.3897142,0.04606337,0.9197934,33.56438,-9.336617,-46.79981,986.1822
4.069130421,0.06990349,-0.01949077,-0.1893835,-0.3932395,0.04671028,0.9096467,33.56438,-9.336617,-46.79981,986.1815
4.074047565,0.06982077,-0.1379632,-0.00652964,-0.3864495,0.04688106,0.9037701,33.56438,-9.336617,-46.79981,986.1815
4.078964710,0.1315395,-0.07860623,-0.006563822,-0.3927699,0.04434109,0.9061682,33.56438,-9.336617,-46.79981,986.1815
4.083882332,0.2550598,-0.01939821,0.1762134,-0.387843,0.04624432,0.9110441,33.56438,-9.336617,-46.79981,986.1815
4.088799477,0.06951454,0.1583318,-0.1894435,-0.3913155,0.04245006,0.903668,32.81577,-8.609745,-46.39586,986.1815
4.093716621,0.06949031,-0.07866263,0.05434744,-0.3898629,0.04924183,0.9063014,32.81577,-8.609745,-46.39586,986.1815
4.101093292,0.1311098,0.03985886,0.05437279,-0.3903716,0.05023944,0.904881,32.81577,-8.609745,-46.39586,986.1815
4.106010437,0.06924541,-0.1970797,-0.006579373,-0.3917547,0.04524316,0.9105586,32.81577,-8.609745,-46.39586,986.1815
4.110928059,0.130984,0.03997628,0.05434274,-0.3908525,0.04877277,0.904838,32.81577,-8.609745,-46.39586,986.1764
4.115845203,0.06913905,0.1584172,0.176202,-0.3908652,0.04686844,0.9023493,32.81577,-8.609745,-46.39586,986.1764
4.120762348,-0.05452673,0.03988881,0.05429361,-0.390799,0.04674146,0.9091421,32.81577,-8.609745,-46.39586,986.1764
4.125680447,0.1309313,-0.1378354,0.1151775,-0.3927699,0.04434109,0.9061682,32.81577,-8.609745,-46.39586,986.1764
4.130597591,0.06906706,0.1583419,0.0542063,-0.3902801,0.04475994,0.9110165,32.81577,-8.609745,-46.39586,986.1764
4.135515213,0.1308058,0.03986937,0.05417224,-0.3946916,0.04232838,0.9085472,32.81105,-8.59699,-46.77895,986.1764
4.140432358,0.1925251,-0.01938872,0.05417648,-0.3902732,0.04185358,0.9099523,32.81105,-8.59699,-46.77895,986.1764
4.145349503,0.3160071,0.03989367,0.1150605,-0.3927912,0.05065032,0.9078273,32.81105,-8.59699,-46.77895,986.1764
4.152725697,0.1922811,-0.01939561,0.1150478,-0.3908141,0.05111009,0.9102535,32.81105,-8.59699,-46.77895,986.1773
4.157643318,-0.05494845,0.09902687,-0.128754,-0.3917666,0.05153425,0.9131881,32.81105,-8.59699,-46.77895,986.1773
4.162560940,0.006887533,-0.01946421,-0.1286922,-0.393282,0.0467919,0.9052799,32.81105,-8.59699,-46.77895,986.1773
4.167478085,-0.1784824,-0.078685,-0.06771253,-0.3873182,0.04569785,0.914421,32.81105,-8.59699,-46.77895,986.1773
4.172395229,-0.05480619,0.09898913,-0.1286454,-0.3917564,0.05055034,0.913642,32.81105,-8.59699,-46.77895,986.1773
4.177312374,0.007010341,0.03976833,-0.006728598,-0.3922903,0.04436366,0.9051939,32.81105,-8.59699,-46.77895,986.1773
4.182229996,0.007025375,-0.01954558,-0.1895166,-0.3888888,0.04829398,0.905292,32.81105,-8.59699,-46.77895,986.1773
4.187147141,-0.1165237,-0.01949608,0.1152115,-0.3932788,0.04871437,0.9067981,33.20074,-9.361086,-45.97059,986.1773
4.192065239,0.007171824,-0.07867958,-0.1285711,-0.3932378,0.04140309,0.9065634,33.20074,-9.361086,-45.97059,986.1763
4.196982384,0.007167343,-0.07870455,0.05432108,-0.3913564,0.04976132,0.9039028,33.20074,-9.361086,-45.97059,986.1763
4.201899529,-0.1164013,0.09902541,0.05422952,-0.3912537,0.04811768,0.9135599,33.20074,-9.361086,-45.97059,986.1763
4.206817150,-0.05454607,0.1581776,-0.06764054,-0.3932348,0.04670121,0.910132,33.20074,-9.361086,-45.97059,986.1763
4.211734295,-0.1780953,0.03966798,0.05425708,-0.3897863,0.04475529,0.9114979,33.20074,-9.361086,-45.97059,986.1763
4.216651440,0.06920301,-0.137963,-0.006733278,-0.3942269,0.04334392,0.9066337,33.20074,-9.361086,-45.97059,986.1763
4.221569538,-0.05444343,0.2174474,0.1761015,-0.3927644,0.04336626,0.9061369,33.20074,-9.361086,-45.97059,986.1763
4.228945255,0.007428699,-0.07873654,0.1760313,-0.3912988,0.04531107,0.9071584,33.20074,-9.361086,-45.97059,986.1763
4.233862877,0.007443439,0.03977896,0.1150027,-0.3952447,0.05209045,0.9078935,33.19243,-8.979559,-46.40629,986.1772
4.238780022,-0.1161642,-0.01944183,0.05399333,-0.3902813,0.04331584,0.9099992,33.19243,-8.979559,-46.40629,986.1772
4.243697166,0.007453461,0.2175211,0.05395941,-0.3864172,0.04778334,0.907683,33.19243,-8.979559,-46.40629,986.1772
4.248614788,-0.05437209,-0.01952908,0.05394468,-0.3908234,0.04775257,0.9072327,33.19243,-8.979559,-46.40629,986.1772
4.253532410,-0.05435735,-0.01951687,0.1757659,-0.3941896,0.04086147,0.9089814,33.19243,-8.979559,-46.40629,986.1772
4.258450031,-0.1779261,-0.0195232,0.05385783,-0.3917256,0.04422297,0.9129533,33.19243,-8.979559,-46.40629,986.1772
4.263367176,0.06935265,0.1582254,-0.06806944,-0.3922938,0.04581685,0.9057261,33.19243,-8.979559,-46.40629,986.1772
4.268284321,0.007488187,0.03969725,0.114689,-0.3957368,0.04678791,0.9043289,33.19243,-8.979559,-46.40629,986.1772
4.273201466,0.1310282,-0.01956072,-0.007219004,-0.3898733,0.05360138,0.9078979,33.19243,-8.979559,-46.40629,986.1783
4.278119087,-0.1162212,-0.07878152,0.05372267,-0.3878625,0.04387073,0.9075694,33.19243,-8.979559,-46.40629,986.1783
4.283036709,-0.1161482,-0.01955485,-0.007209935,-0.3912115,0.04225053,0.9143425,33.19434,-8.625671,-46.01197,986.1783
4.287954331,0.0075666,-0.07875699,0.1146114,-0.3922649,0.04817232,0.9101712,33.19434,-8.625671,-46.01197,986.1783
4.295330048,0.007598319,-0.01958005,-0.0682314,-0.393692,0.04518918,0.9125149,33.19434,-8.625671,-46.01197,986.1783
4.300247669,-0.05418849,-0.07881937,-0.007270509,-0.3931766,0.04466083,0.9149215,33.19434,-8.625671,-46.01197,986.1783
4.305164814,-0.05417387,-0.07878852,-0.06824137,-0.3888169,0.04381653,0.9100032,33.19434,-8.625671,-46.01197,986.1783
4.310081959,0.1312451,0.03974562,0.05365666,-0.3912801,0.04865044,0.9111495,33.19434,-8.625671,-46.01197,986.1775
4.315000057,0.06939999,0.2174011,-0.06823218,-0.3883395,0.04673638,0.9105784,33.19434,-8.625671,-46.01197,986.1775
4.319917202,0.1929593,0.0396213,0.05362754,-0.3913022,0.04676425,0.9076904,33.19434,-8.625671,-46.01197,986.1775
4.324834347,0.007433652,0.1580996,0.1145501,-0.3913286,0.04729701,0.9052801,33.19434,-8.625671,-46.01197,986.1775
4.329751968,0.1927751,-0.01962435,-0.007396104,-0.3957306,0.04484731,0.9037811,33.19434,-8.625671,-46.01197,986.1775
4.334669113,0.007327234,0.09881678,-0.1292657,-0.3893102,0.04623105,0.9110557,33.19243,-8.979559,-46.40629,986.1775
4.339586258,0.1309062,-0.01971137,0.05362689,-0.3927728,0.04820417,0.9082342,33.19243,-8.979559,-46.40629,986.1775
4.344504356,-0.05456105,0.03953406,-0.00734396,-0.3927363,0.04668749,0.9110985,33.19243,-8.979559,-46.40629,986.1775
4.349421501,0.007274704,-0.1382457,-0.0682382,-0.3928027,0.05019011,0.906356,33.19243,-8.979559,-46.40629,986.1775
4.356797695,0.3162752,0.03952784,0.05360466,-0.3898139,0.04384395,0.9080701,33.19243,-8.979559,-46.40629,986.1741
4.361714840,-0.1782576,-0.01973002,-0.06826502,-0.3932497,0.04769418,0.9091928,33.19243,-8.979559,-46.40629,986.1741
4.366631985,-0.0545815,-0.138221,-0.1291593,-0.3907965,0.0496297,0.9111769,33.19243,-8.979559,-46.40629,986.1741
4.371549606,0.1926392,-0.07890119,0.1146321,-0.3912549,0.04667355,0.9125425,33.19243,-8.979559,-46.40629,986.1741
4.376467228,-0.1164503,-0.1380847,-0.1291502,-0.3927482,0.0438174,0.9080934,33.19243,-8.979559,-46.40629,986.1741
4.381384850,0.06898841,0.0989342,-0.007252198,-0.3942555,0.04677398,0.9057729,33.19243,-8.979559,-46.40629,986.1741
4.386301994,-0.05469665,-0.01951959,-0.1291411,-0.3848829,0.04332824,0.9118975,33.19243,-8.979559,-46.40629,986.1741
4.391219139,-0.05466233,-0.1971878,0.05373235,-0.3918094,0.04583034,0.905237,33.19243,-8.979559,-46.40629,986.1734
4.396136761,0.06893612,-0.01943935,-0.007238565,-0.3927696,0.05012663,0.9097524,33.19243,-8.979559,-46.40629,986.1734
4.401053906,0.1307137,0.03984304,-0.06815201,-0.3937858,0.0444048,0.9022943,33.19243,-8.979559,-46.40629,986.1734
4.405972004,0.007028617,-0.0193964,0.1147022,-0.3927557,0.04431389,0.9076238,33.19243,-8.979559,-46.40629,986.1734
4.410889149,0.007004798,0.09906326,-0.129061,-0.3907761,0.04766188,0.9120848,33.19243,-8.979559,-46.40629,986.1734
4.418264866,0.007017651,0.03982993,-0.06815533,-0.3941978,0.04232374,0.9090284,33.19243,-8.979559,-46.40629,986.1734
4.423182488,-0.1783523,-0.1379128,0.05372348,-0.3902732,0.04185358,0.9099523,33.19243,-8.979559,-46.40629,986.1734
4.428099632,0.1306894,-0.07861166,-0.1900397,-0.3874607,0.0469357,0.9003814,33.19243,-8.979559,-46.40629,986.1734
4.433016777,0.1305879,-0.01936645,-0.06798857,-0.3927796,0.04773488,0.9072482,32.81297,-8.2431,-46.38463,986.1726
4.437934876,0.06876255,-0.01935425,-0.06794585,-0.3903086,0.04819001,0.9101557,32.81297,-8.2431,-46.38463,986.1726
4.442852020,-0.0548642,-0.1377523,-0.1897966,-0.3897903,0.04379861,0.9104962,32.81297,-8.2431,-46.38463,986.1726
4.447769165,-0.05484917,-0.01927412,0.1759072,-0.3942142,0.04524824,0.9091223,32.81297,-8.2431,-46.38463,986.1726
4.452686787,0.0687688,-0.1377095,-0.1897687,-0.3937383,0.04093846,0.905096,32.81297,-8.2431,-46.38463,986.1726
4.457603932,0.1305271,0.04011325,-0.006914623,-0.3898709,0.04732843,0.9042981,32.81297,-8.2431,-46.38463,986.1726
4.462521076,0.06864357,-0.01910776,0.05400772,-0.3893413,0.04677288,0.9081602,32.81297,-8.2431,-46.38463,986.1726
4.467438698,0.006818436,0.158622,0.05395465,-0.3922286,0.04087011,0.9094512,32.81297,-8.2431,-46.38463,986.1726
4.472356320,0.06859617,0.09928929,0.1757759,-0.3883465,0.04964276,0.9116428,32.81297,-8.2431,-46.38463,986.1736
4.477273941,0.130374,-0.07849085,-0.06804479,-0.3932517,0.04721583,0.9086921,32.81297,-8.2431,-46.38463,986.1736
4.484649658,0.06844966,-0.07850994,-0.1899315,-0.3922266,0.04134846,0.9099521,33.19513,-8.627797,-45.94812,986.1736
4.489566803,0.06838723,0.1584342,-0.00705821,-0.3913303,0.0526042,0.9083635,33.19513,-8.627797,-45.94812,986.1736
4.494484425,-0.05518104,-0.1377374,-0.1289281,-0.3961806,0.04621444,0.908684,33.19513,-8.627797,-45.94812,986.1736
4.499402046,-0.05512697,-0.1377253,-0.0679482,-0.3918075,0.04630869,0.9057379,33.19513,-8.627797,-45.94812,986.1736
4.504319668,-0.1786953,-0.1376946,-0.06794378,-0.3901953,0.03881117,0.916166,33.19513,-8.627797,-45.94812,986.1736
4.509236813,-0.1168398,-0.01914201,-0.006983102,-0.3923316,0.0458894,0.9018444,33.19513,-8.627797,-45.94812,986.1736
4.514153957,0.006836594,-0.1375403,0.1758327,-0.3898796,0.0463808,0.9028112,33.19513,-8.627797,-45.94812,986.1703
4.519071579,0.1303576,0.0402266,0.1148042,-0.3927015,0.04131682,0.9114116,33.19513,-8.627797,-45.94812,986.1703
4.523988724,-0.05507043,-0.01901306,-0.06800273,-0.3913417,0.05214399,0.9068922,33.19513,-8.627797,-45.94812,986.1703
4.528906822,-0.1168956,-0.0189639,0.05381856,-0.39474,0.05013613,0.9083123,33.19513,-8.627797,-45.94812,986.1703
4.533823967,-0.2403668,-0.137418,0.1147602,-0.3848958,0.04479955,0.9114592,33.56349,-8.616084,-46.39425,986.1703
4.541199684,-0.1165569,-0.01885981,0.1147095,-0.3902867,0.05345184,0.9156651,33.56349,-8.616084,-46.39425,986.1703
4.546117306,-0.3018492,-0.1372581,-0.007160261,-0.3936967,0.04519825,0.9120297,33.56349,-8.616084,-46.39425,986.1703
4.551034451,-0.4252237,0.09972303,-0.1899098,-0.3912813,0.04720632,0.9101322,33.56349,-8.616084,-46.39425,986.1669
4.555951595,-0.4867192,0.09967896,-0.06795445,-0.3893542,0.04824421,0.9077219,33.56349,-8.616084,-46.39425,986.1669
4.560869694,-0.3010478,-0.01883111,-0.1287915,-0.3922452,0.04717027,0.9115955,33.56349,-8.616084,-46.39425,986.1669
4.565786839,-0.4862825,-0.01880071,-0.06775427,-0.390303,0.04383953,0.908074,33.56349,-8.616084,-46.39425,986.1669
4.570703983,-0.1151487,-0.1964694,-0.2505231,-0.3922338,0.04763047,0.9130667,33.56349,-8.616084,-46.39425,986.1669
4.575621605,-0.3004808,-0.07789854,-0.06753517,-0.3913088,0.04291933,0.904654,33.56349,-8.616084,-46.39425,986.1669
4.580538750,-0.4856381,-0.1370826,-0.1893479,-0.3933002,0.04586241,0.9028226,33.56629,-8.982728,-46.40549,986.1669
4.585455894,-0.4853719,-0.07774484,-0.3720212,-0.3888149,0.04429487,0.9105041,33.56629,-8.982728,-46.40549,986.1669
4.592832565,-0.3614087,-0.07755995,-0.06717641,-0.3893602,0.04680916,0.9062193,33.56629,-8.982728,-46.40549,986.1678
4.597750187,-0.1757773,-0.1367257,-0.1889894,-0.3913137,0.04630404,0.9062192,33.56629,-8.982728,-46.40549,986.1678
4.602667332,-0.5464368,-0.1366398,-0.006059174,-0.3932239,0.04475152,0.9100694,33.56629,-8.982728,-46.40549,986.1678
4.607584476,-0.4225295,-0.314253,-0.06697338,-0.3917684,0.04768024,0.9106368,33.56629,-8.982728,-46.40549,986.1678
4.612501621,-0.2986805,-0.1955895,-0.3106607,-0.3852804,0.03784431,0.9180368,33.56629,-8.982728,-46.40549,986.1678
4.617419243,-0.3602361,-0.2547369,-0.1886104,-0.3897896,0.04283284,0.9099797,33.56629,-8.982728,-46.40549,986.1678
4.622336864,-0.4217725,0.2192873,-0.06667507,-0.3932427,0.0447878,0.9081286,33.56629,-8.982728,-46.40549,986.1678
4.627259254,-0.3597448,-0.1362672,-0.06665231,-0.3892881,0.03895606,0.9088801,33.56629,-8.982728,-46.40549,986.1678
4.632171631,-0.2358965,-0.1362002,-0.06662958,-0.3898123,0.03853677,0.9049868,32.82127,-8.624627,-45.94892,986.1684
4.637088776,-0.1122619,-0.01768583,0.05528655,-0.394153,0.03934481,0.9118458,32.82127,-8.624627,-45.94892,986.1684
4.642006397,-0.0503705,0.219183,0.116189,-0.3922592,0.04382183,0.9080895,32.82127,-8.624627,-45.94892,986.1684
4.646923542,0.07332234,0.04140206,0.05521711,-0.3902726,0.04426345,0.9114861,32.82127,-8.624627,-45.94892,986.1684
4.651841640,0.0114554,0.1005904,0.1770376,-0.3937229,0.04235537,0.9075689,32.82127,-8.624627,-45.94892,986.1684
4.659217358,0.2584758,-0.01793321,-0.005806676,-0.3903416,0.04487785,0.9047089,32.82127,-8.624627,-45.94892,986.1684
4.664134502,0.1965508,0.1005813,-0.005803014,-0.3917667,0.04237308,0.9075534,32.82127,-8.624627,-45.94892,986.1684
4.669052124,0.01106169,-0.1364141,-0.005818506,-0.3898149,0.04818536,0.910637,32.82127,-8.624627,-45.94892,986.1684
4.673969269,0.1964785,-0.017881,0.1160211,-0.3927614,0.04866438,0.9097055,32.82127,-8.624627,-45.94892,986.1711
4.678886413,-0.05083137,-0.07710281,-0.005868587,-0.3883266,0.04526507,0.9110167,32.82127,-8.624627,-45.94892,986.1711
4.683804512,0.2581885,-0.01785851,-0.12772,-0.3957042,0.04431454,0.9061914,33.18491,-8.60016,-46.77814,986.1711
4.688721657,0.07262187,-0.01792169,-0.005822953,-0.3888282,0.03998067,0.9064816,33.18491,-8.60016,-46.77814,986.1711
4.693639278,0.2579224,-0.01787321,0.116055,-0.3902754,0.04475087,0.9115018,33.18491,-8.60016,-46.77814,986.1711
4.698558330,0.1959977,0.1598185,-0.005873092,-0.3912826,0.0457622,0.9091147,33.18491,-8.60016,-46.77814,986.1711
4.703473568,0.2576372,0.04121479,-0.005926836,-0.3878517,0.0452967,0.9095572,33.18491,-8.60016,-46.77814,986.1711
4.708390713,0.1956934,-0.07727719,0.1159703,-0.3888182,0.04237242,0.9089858,33.18491,-8.60016,-46.77814,986.1711
4.713308811,0.319154,0.218862,0.1768346,-0.3926687,0.0354678,0.9112238,33.18491,-8.60016,-46.77814,986.1737
4.718225956,0.3807161,0.1003329,0.1158055,-0.3923331,0.04782093,0.9028774,33.18491,-8.60016,-46.77814,986.1737
4.723143578,0.4422785,-0.01817755,0.1157711,-0.3927055,0.04036012,0.9104099,33.18491,-8.60016,-46.77814,986.1737
4.730519295,0.3802156,-0.01827203,0.1765991,-0.3893487,0.04726937,0.9076906,33.56068,-8.249439,-46.38301,986.1737
4.735436439,0.3181752,-0.0182605,0.2983625,-0.3888644,0.04728286,0.9072016,33.56068,-8.249439,-46.38301,986.1737
4.740354061,0.0708083,0.2186645,-0.00647238,-0.3913068,0.04339768,0.9051549,33.56068,-8.249439,-46.38301,986.1737
4.745271683,0.5032964,0.1000797,0.05446883,-0.391252,0.0428105,0.9104765,33.56068,-8.249439,-46.38301,986.1737
4.750189304,0.317634,-0.07760776,0.1153909,-0.385812,0.03792151,0.9136738,33.56068,-8.249439,-46.38301,986.1737
4.755106449,0.3174151,-0.01838177,0.05438125,-0.3918176,0.04729259,0.905284,33.56068,-8.249439,-46.38301,986.1747
4.760023594,0.4408186,-0.07760324,-0.1284452,-0.3912846,0.04528386,0.908614,33.56068,-8.249439,-46.38301,986.1747
4.764941215,0.2551179,0.04087429,0.05440866,-0.3893487,0.04726937,0.9076906,33.56068,-8.249439,-46.38301,986.1747
4.769858360,0.3167979,0.04088581,0.05437448,-0.3907838,0.04237285,0.9080309,33.56068,-8.249439,-46.38301,986.1747
4.777235031,0.2546979,0.1001362,0.1761401,-0.3903196,0.05013968,0.9102183,33.56068,-8.249439,-46.38301,986.1747
4.782152176,0.3163199,-0.2553248,0.1151497,-0.3883803,0.05067201,0.9087629,33.56619,-8.264321,-45.93607,986.1747
4.787069321,0.1925182,-0.1959128,-0.006816001,-0.3917622,0.04573965,0.9100891,33.56619,-8.264321,-45.93607,986.1747
4.791986942,-0.05478915,-0.07736094,-0.006850008,-0.3917331,0.04471946,0.9124838,33.56619,-8.264321,-45.93607,986.1697
4.796904087,0.2541944,-0.1365825,0.05409143,-0.3864232,0.0463483,0.9061804,33.56619,-8.264321,-45.93607,986.1697
4.801821232,0.3776182,-0.01806793,0.1759317,-0.3908229,0.05016246,0.9087666,33.56619,-8.264321,-45.93607,986.1697
4.806739330,0.06841246,-0.1364853,-0.06785077,-0.3956386,0.04177769,0.9114504,33.56619,-8.264321,-45.93607,986.1697
4.811656475,0.191953,-0.01800792,-0.06786557,-0.3932527,0.04239608,0.9056243,33.56619,-8.264321,-45.93607,986.1697
4.816574097,0.315416,-0.07719243,0.1149694,-0.3898538,0.04343817,0.9036877,33.56619,-8.264321,-45.93607,986.1697
4.821494579,0.3151984,-0.1363956,0.1148589,-0.3956749,0.03991871,0.9065358,33.56619,-8.264321,-45.93607,986.1697
4.826408386,0.2532572,-0.07707693,0.1147867,-0.3942223,0.04671049,0.9091693,33.56619,-8.264321,-45.93607,986.1697
4.831325531,0.3148413,0.04143754,0.05373918,-0.3888293,0.04769772,0.9110988,33.55877,-8.603329,-46.77734,986.1697
4.836243629,0.06749591,-0.01776573,-0.007270015,-0.3878483,0.04384352,0.909025,33.55877,-8.603329,-46.77734,986.1706
4.841160774,0.1910565,-0.01777319,0.1145705,-0.3888597,0.04727379,0.9076867,33.55877,-8.603329,-46.77734,986.1706
4.846078396,0.1909558,-0.1362281,0.05358059,-0.393752,0.04337555,0.9051743,33.55877,-8.603329,-46.77734,986.1706
4.850995541,0.1908941,-0.1954314,-0.007332798,-0.3908321,0.04680495,0.9057457,33.55877,-8.603329,-46.77734,986.1706
4.858372211,0.1290681,0.04157316,0.1146058,-0.3947454,0.05111097,0.9083436,33.55877,-8.603329,-46.77734,986.1706
4.863289356,-0.05643682,-0.07682592,0.05363498,-0.3913002,0.0472426,0.9081913,33.55877,-8.603329,-46.77734,986.1706
4.868206978,-0.05640133,-0.0768335,0.1145001,-0.3912224,0.04420019,0.914405,33.55877,-8.603329,-46.77734,986.1706
4.873124123,-0.3035912,-0.07674806,-0.06832577,-0.3942741,0.05259579,0.9074163,33.55877,-8.603329,-46.77734,986.1733
4.878041267,0.06733066,0.1009807,-0.007345733,-0.3893589,0.04825328,0.9072368,33.56349,-8.616084,-46.39425,986.1733
4.882958412,-0.1798398,0.1601689,0.0535769,-0.389338,0.04869535,0.9096784,33.56349,-8.616084,-46.39425,986.1733
4.887876034,0.005619309,-0.01753778,-0.007355586,-0.3903316,0.04726958,0.9072132,33.56349,-8.616084,-46.39425,986.1733
4.892796040,-0.1797692,-0.0175267,-0.0682881,-0.3897679,0.04230915,0.9119049,33.56349,-8.616084,-46.39425,986.1733
4.897711277,-0.2414578,-0.1359446,-0.007327218,-0.3918152,0.04101964,0.901684,33.56349,-8.616084,-46.39425,986.1733
4.902628422,0.06764295,0.04180269,0.05357626,-0.3897776,0.04570293,0.9129848,33.56349,-8.616084,-46.39425,986.1733
4.907545567,-0.1796054,-0.1358854,-0.190206,-0.3907806,0.04429531,0.9095491,33.56349,-8.616084,-46.39425,986.1733
4.912465095,-0.1176911,0.1011134,-0.1291685,-0.398625,0.04522655,0.9081868,33.56349,-8.616084,-46.39425,986.17
4.919838905,-0.2412414,-0.1950167,0.05368808,-0.3888898,0.04347423,0.9022242,33.56349,-8.616084,-46.39425,986.17
4.924757004,0.1296802,-0.1356799,-0.1291188,-0.3908681,0.0507315,0.9044154,33.56349,-8.616084,-46.39425,986.17
4.929674149,0.006034602,0.1604402,-0.06813882,-0.3878125,0.04329262,0.9124058,33.18874,-7.892382,-45.98949,986.17
4.934591293,-0.05575127,-0.1949843,0.05373999,-0.3932191,0.04474246,0.9105546,33.18874,-7.892382,-45.98949,986.17
4.939514160,0.00606585,-0.07643287,0.05366794,-0.3868105,0.03988047,0.9127738,33.18874,-7.892382,-45.98949,986.17
4.944426060,0.006042621,-0.1355993,-0.007264609,-0.3941973,0.04473361,0.9105623,33.18874,-7.892382,-45.98949,986.17
4.949344158,0.006038847,0.04216637,0.05365797,-0.3946632,0.04227396,0.9114584,33.18874,-7.892382,-45.98949,986.17
4.954261303,0.0678559,-0.07627035,0.1755177,-0.3878217,0.0399351,0.9093851,33.18874,-7.892382,-45.98949,986.1709
4.959178448,0.06779388,0.04218784,0.1754074,-0.3912851,0.04287399,0.9070801,33.18874,-7.892382,-45.98949,986.1709
4.964096069,0.1295528,0.1606459,-0.06841303,-0.3897796,0.04522458,0.9124839,33.18874,-7.892382,-45.98949,986.1709
4.969013214,0.1912728,-0.1947973,0.175302,-0.3903341,0.04438136,0.9051784,33.18874,-7.892382,-45.98949,986.1709
4.973930359,0.3147362,-0.01703171,0.1752301,-0.3893858,0.04637616,0.9032925,33.18874,-7.892382,-45.98949,986.1709
4.978847504,0.1909937,-0.01694661,0.1751009,-0.3947256,0.04673328,0.9077175,33.19434,-8.625671,-46.01197,986.1709
4.986224174,0.3143973,-0.0762195,0.114037,-0.3897701,0.04520644,0.9134544,33.19434,-8.625671,-46.01197,986.1709
4.991141796,0.005270107,-0.01697588,0.2358397,-0.3913519,0.05312789,0.9064383,33.19434,-8.625671,-46.01197,986.1709
4.996058941,0.06708764,-0.1354126,-0.007999664,-0.3922587,0.04623171,0.9096234,33.19434,-8.625671,-46.01197,986.1732
5.000976086,0.1287887,-0.0760945,0.1138414,-0.3937502,0.04722954,0.9077255,33.19434,-8.625671,-46.01197,986.1732
5.005893230,0.1905093,0.1015965,0.05287097,-0.3907942,0.0467324,0.9096274,33.19434,-8.625671,-46.01197,986.1732
5.010810852,0.06682558,-0.01685902,0.2356109,-0.3937216,0.04379948,0.9085864,33.19434,-8.625671,-46.01197,986.1732
5.015728474,0.1903477,0.0423473,0.05270889,-0.3879282,0.04640757,0.9023104,33.19434,-8.625671,-46.01197,986.1732
5.020646095,-0.05691956,-0.135397,-0.008261377,-0.3912593,0.03993133,0.9079565,33.19434,-8.625671,-46.01197,986.1732
5.025563240,0.1284623,0.04236855,0.1135989,-0.3898443,0.04342003,0.904658,33.19434,-8.625671,-46.01197,986.1732
5.030480385,0.1902025,0.04236053,0.1134893,-0.3898264,0.04772515,0.9091657,32.81297,-8.2431,-46.38463,986.1732
5.035398006,0.190083,-0.07611349,0.05249997,-0.3957261,0.04821389,0.9063166,32.81297,-8.2431,-46.38463,986.1742
5.040315151,0.2517651,0.04241895,0.1133658,-0.3893286,0.04867721,0.9106488,32.81297,-8.2431,-46.38463,986.1742
5.045233250,0.1279652,0.1608026,-0.008541401,-0.387305,0.04085088,0.912809,32.81297,-8.2431,-46.38463,986.1742
5.052608967,0.1278058,-0.01693632,-0.008648191,-0.3937616,0.04676934,0.9062542,32.81297,-8.2431,-46.38463,986.1742
5.057526112,0.1276866,-0.0761214,0.1741495,-0.3917663,0.0481586,0.9111377,32.81297,-8.2431,-46.38463,986.1742
5.062443733,0.312972,-0.01684049,0.1131604,-0.3937156,0.04523452,0.9100889,32.81297,-8.2431,-46.38463,986.1742
5.067360878,0.0656472,0.1608879,-0.008765792,-0.3923042,0.0501764,0.9073226,32.81297,-8.2431,-46.38463,986.1742
5.072278976,0.1891895,-0.01685642,-0.06967828,-0.3912058,0.03790004,0.9122608,32.81297,-8.2431,-46.38463,986.1742
5.077196121,0.1890512,-0.0168458,0.1130812,-0.3893353,0.04820793,0.9096627,33.56349,-8.616084,-46.39425,986.1725
5.082113266,0.2507533,-0.07604964,0.1130676,-0.3932373,0.04381298,0.9080973,33.56349,-8.616084,-46.39425,986.1725
5.087030888,0.4360196,0.04244563,0.05207857,-0.3932251,0.04330742,0.909052,33.56349,-8.616084,-46.39425,986.1725
5.091948032,0.1267577,0.0424376,0.1129638,-0.3923094,0.04777559,0.9053035,33.56349,-8.616084,-46.39425,986.1725
5.096865177,0.3120242,0.04246676,0.05193658,-0.3937214,0.04042383,0.906536,33.56349,-8.616084,-46.39425,986.1725
5.101783276,0.3118088,0.04247727,0.1737591,-0.3902888,0.04381232,0.9095296,33.56349,-8.616084,-46.39425,986.1725
5.109158993,0.6822268,-0.1352247,0.1736337,-0.3932618,0.04819974,0.9082381,33.56349,-8.616084,-46.39425,986.1725
5.114076614,0.3110476,-0.01671097,0.1125874,-0.3898731,0.05022573,0.9058475,33.56349,-8.616084,-46.39425,986.1734
5.118993759,0.1254866,0.04245817,0.1125358,-0.3931669,0.04126705,0.9138414,33.56349,-8.616084,-46.39425,986.1734
5.123910904,0.1253689,-0.07597878,-0.070308,-0.3879365,0.05124547,0.9044078,33.56349,-8.616084,-46.39425,986.1734
5.128828526,0.3724767,0.04255367,0.05157214,-0.3893273,0.05012132,0.9116662,33.19434,-8.625671,-46.01197,986.1734
5.133746147,0.3104412,-0.1351536,0.1124769,-0.3922878,0.04725189,0.9072287,33.19434,-8.625671,-46.01197,986.1734
5.138663769,0.06307915,0.04255604,0.1124062,-0.3888186,0.0491237,0.9130866,33.19434,-8.625671,-46.01197,986.1734
5.143580914,0.124841,0.04256655,0.05143678,-0.3928042,0.05212165,0.907389,33.19434,-8.625671,-46.01197,986.1734
5.148498058,0.1247626,-0.01671188,0.05140446,-0.3903134,0.04819908,0.9096705,33.19434,-8.625671,-46.01197,986.1734
5.153415203,0.1247619,0.1016903,0.0513913,-0.3922499,0.04717933,0.9111103,33.19434,-8.625671,-46.01197,986.1727
5.158332825,0.1247029,0.04244913,0.05133988,-0.3936532,0.04077521,0.9138296,33.19434,-8.625671,-46.01197,986.1727
5.163250446,0.1245858,-0.1352208,0.05138417,-0.3898724,0.04925996,0.9053311,33.19434,-8.625671,-46.01197,986.1727
5.168168068,0.06274492,-0.07595866,-0.07052239,-0.3878314,0.0433289,0.9104651,33.19434,-8.625671,-46.01197,986.1727
5.175543785,0.1245649,-0.01669131,-0.07055163,-0.3933348,0.04785743,0.9004592,33.56629,-8.982728,-46.40549,986.1727
5.180460930,0.0008836475,0.1609997,-0.009589297,-0.3912549,0.04667355,0.9125425,33.56629,-8.982728,-46.40549,986.1727
5.185378552,0.1244084,-0.0760337,0.112291,-0.3898405,0.04775236,0.9077101,33.56629,-8.982728,-46.40549,986.1727
5.190296173,-0.06103535,-0.07600454,-0.009653823,-0.3908393,0.0439258,0.9032258,33.56629,-8.982728,-46.40549,986.1727
5.195213795,0.124388,0.1016678,0.2340434,-0.3863239,0.04615784,0.9163698,33.56629,-8.982728,-46.40549,986.1737
5.200130940,0.1243487,-0.135291,0.05112322,-0.3913231,0.04632218,0.9052488,33.56629,-8.982728,-46.40549,986.1737
5.205048084,0.1860526,-0.1352247,-0.009846067,-0.3912184,0.04515689,0.9154068,33.56629,-8.982728,-46.40549,986.1737
5.209965706,0.2477372,-0.01669233,-0.07075789,-0.3932049,0.04471525,0.9120103,33.56629,-8.982728,-46.40549,986.1737
5.214882851,0.3711845,-0.01666328,0.1729777,-0.3888841,0.04828491,0.9057772,33.56629,-8.982728,-46.40549,986.1737
5.219800949,0.2473872,-0.07588588,0.111951,-0.3927437,0.04718398,0.910629,33.56629,-8.982728,-46.40549,986.1737
5.224718094,0.1854303,-0.01662384,0.233755,-0.3917467,0.04715655,0.912562,33.56629,-8.982728,-46.40549,986.1737
5.229635239,0.1235318,-0.135098,0.05081587,-0.3927917,0.04824045,0.9062934,33.56629,-8.982728,-46.40549,986.1737
5.234552860,-0.0001487485,0.101826,0.1726582,-0.389852,0.04729215,0.9062389,33.56629,-8.982728,-46.40549,986.1703
5.239470005,-0.2473739,-0.0758626,-0.07117964,-0.3962069,0.04674721,0.9062735,33.56629,-8.982728,-46.40549,986.1703
5.244387150,0.4323841,-0.4903903,-0.07105835,-0.3819764,0.06751709,0.9238164,33.56629,-8.982728,-46.40549,986.1703
5.249305248,-1.174299,0.6942806,0.2336146,-0.3992194,0.02227954,0.8831792,33.56629,-8.982728,-46.40549,986.1703
5.256680965,0.6179244,-0.312814,0.05073617,-0.3918405,0.06807018,0.915661,33.56629,-8.982728,-46.40549,986.1703
5.261598587,-0.9891468,-0.5494938,-0.01027113,-0.3715233,0.05665101,0.9360061,33.56629,-8.982728,-46.40549,986.1703
5.266515732,-0.370297,0.9313422,0.2334264,-0.3928297,-0.004244174,0.870138,33.56629,-8.982728,-46.40549,986.1703
5.271432877,1.977809,-0.01678522,0.05048751,-0.4064938,0.05633008,0.9105495,33.56629,-8.982728,-46.40549,986.1703
5.276350021,-0.0007698605,-0.4313129,0.4769966,-0.3874156,0.07144029,0.9201025,32.80825,-8.230345,-46.76772,986.1716
5.281268120,-0.1242558,-0.1349513,0.3548801,-0.3726285,0.03759892,0.9111276,32.80825,-8.230345,-46.76772,986.1716
5.286185265,0.6791054,0.3388488,0.171884,-0.3927696,0.05012663,0.9097524,32.80825,-8.230345,-46.76772,986.1716
5.291102886,-0.06286119,-0.0166878,0.1108389,-0.4005629,0.04276269,0.9086093,32.80825,-8.230345,-46.76772,986.1716
5.296020031,0.3696915,-0.1943949,0.04987046,-0.3824882,0.04151859,0.9055078,32.80825,-8.230345,-46.76772,986.1716
5.300937176,0.554786,-0.01661096,0.2326506,-0.3824577,0.0511037,0.9145545,32.80825,-8.230345,-46.76772,986.1716
5.308313847,0.2455083,0.1019266,0.04960079,-0.3972154,0.04631443,0.9028692,32.80825,-8.230345,-46.76772,986.1716
5.313230991,0.3070973,-0.2535356,0.04960794,-0.3888741,0.05067665,0.9082815,32.80825,-8.230345,-46.76772,986.1716
5.318148613,-0.06384618,-0.07571444,0.04955762,-0.3859236,0.05115435,0.9102148,32.80825,-8.230345,-46.76772,986.1725
5.323065758,-0.06380609,0.2204611,-0.01142977,-0.3937584,0.0486918,0.9077724,32.80825,-8.230345,-46.76772,986.1725
5.327982903,-0.2491898,-0.01655377,-0.0723406,-0.3947194,0.04479267,0.9071698,32.81857,-8.976389,-46.4071,986.1725
5.332900524,-0.1873095,-0.1350095,-0.07225686,-0.3922903,0.04436366,0.9051939,32.81857,-8.976389,-46.4071,986.1725
5.337818146,-0.001806796,-0.1349061,-0.01131263,-0.3902166,0.04512039,0.9178251,32.81857,-8.976389,-46.4071,986.1725
5.342735767,0.05997636,-0.01639239,-0.07222352,-0.3913199,0.04824466,0.906767,32.81857,-8.976389,-46.4071,986.1725
5.347652912,-0.06360599,0.04283236,-0.07223558,-0.3926975,0.04227353,0.9124132,32.81857,-8.976389,-46.4071,986.1725
5.352570057,-0.1871689,-0.1348936,0.1715201,-0.3883781,0.0477747,0.9072134,32.81857,-8.976389,-46.4071,986.1725
5.357487679,0.2455201,-0.01634289,-0.01134164,-0.3902679,0.04425438,0.9119713,32.81857,-8.976389,-46.4071,986.1736
5.362404823,0.2454047,-0.01633272,-0.1332088,-0.3923502,0.05171122,0.9034879,32.81857,-8.976389,-46.4071,986.1736
5.367322922,0.05988498,-0.1347699,0.232402,-0.3932775,0.05015848,0.9078155,32.81857,-8.976389,-46.4071,986.1736
5.374698639,-0.06377443,0.2206622,0.1104619,-0.3897878,0.04668683,0.9125308,33.18402,-7.879625,-46.37258,986.1736
5.379615784,-0.0637538,-0.1348374,0.1103734,-0.3892682,0.04373955,0.9138887,33.18402,-7.879625,-46.37258,986.1736
5.384533405,-0.2490793,-0.01628661,-0.01157025,-0.3947265,0.05107469,0.9102845,33.18402,-7.879625,-46.37258,986.1736
5.389450550,-0.2490004,0.04301239,-0.2553115,-0.3942863,0.04394017,0.9008269,33.18402,-7.879625,-46.37258,986.1736
5.394367695,-0.1870425,-0.01626627,0.04947711,-0.388739,0.04077411,0.916217,33.18402,-7.879625,-46.37258,986.1684
5.399285793,0.1838255,0.0430142,0.04948432,-0.3907873,0.04382604,0.9085631,33.18402,-7.879625,-46.37258,986.1684
5.404202938,-0.001636116,-0.0162831,0.1713084,-0.3957084,0.04673349,0.9072402,33.18402,-7.879625,-46.37258,986.1684
5.409120560,0.06016638,-0.01619846,0.1102827,-0.3888204,0.04526971,0.9105354,33.18402,-7.879625,-46.37258,986.1684
5.414037705,-0.001672905,-0.1346544,0.04927632,-0.3923007,0.04872322,0.9067904,33.18402,-7.879625,-46.37258,986.1684
5.418954849,0.0600908,0.2799869,-0.01161518,-0.3913421,0.04635846,0.903308,33.18402,-7.879625,-46.37258,986.1684
5.423871994,0.06009192,-0.1939603,-0.01162701,-0.3927768,0.04724746,0.9072326,33.18874,-7.892382,-45.98949,986.1684
5.428790093,0.06001533,-0.07540953,0.232014,-0.3878585,0.04482742,0.9085712,33.18874,-7.892382,-45.98949,986.1684
5.433707237,-0.1254074,0.1023369,-0.07274088,-0.3937397,0.05203117,0.9117636,33.18874,-7.892382,-45.98949,986.1684
5.438624859,-0.125348,0.1023284,0.2318948,-0.3917845,0.04722911,0.9086804,33.18874,-7.892382,-45.98949,986.1674
5.443542004,-0.001705154,0.1022456,-0.01196116,-0.3898696,0.04877255,0.9053155,33.18874,-7.892382,-45.98949,986.1674
5.448459149,0.060078,0.04300414,0.1708195,-0.3888413,0.04482763,0.9080937,33.18874,-7.892382,-45.98949,986.1674
5.455835819,0.1219199,-0.07546513,-0.01205719,-0.3913368,0.04875928,0.9053271,33.18874,-7.892382,-45.98949,986.1674
5.460752964,0.1218628,-0.2530796,0.04892581,-0.389262,0.04179894,0.913341,33.18874,-7.892382,-45.98949,986.1674
5.465670586,-0.1254003,-0.01606284,0.04887593,-0.3888717,0.04440371,0.9046816,33.18874,-7.892382,-45.98949,986.1674
