Time (s),Gyroscope X (deg/s),Gyroscope Y (deg/s),Gyroscope Z (deg/s),Accelerometer X (g),Accelerometer Y (g),Accelerometer Z (g),Magnetometer X (uT),Magnetometer Y (uT),Magnetometer Z (uT),Barometer (hPa)
0.000000000,-0.01431488,-0.09911491,0.1096304,-0.5342677,0.1643339,0.8126132,36.25087,-6.961904,-34.25771,992.0889
0.004919529,-0.1996715,0.2562524,0.04866264,-0.5393154,0.172306,0.8012574,36.25087,-6.961904,-34.25771,992.0889
0.009843349,-0.01416106,0.1376439,0.04865122,-0.5435393,0.1531208,0.8079599,36.56242,-6.964545,-34.25704,992.0889
0.014758110,0.1712328,0.1376505,0.1095769,-0.5445626,0.1503054,0.8015662,36.56242,-6.964545,-34.25704,992.0889
0.019676685,0.3564909,-0.336263,0.4141747,-0.5368069,0.1760642,0.8100969,36.56242,-6.964545,-34.25704,992.0889
0.027055740,0.1090462,0.1969463,0.04827644,-0.5358686,0.1756673,0.8057067,36.56242,-6.964545,-34.25704,992.0889
0.031975269,0.1089971,0.2560742,-0.07360902,-0.5440366,0.1637398,0.8136454,36.56242,-6.964545,-34.25704,992.0889
0.036893845,-0.01467434,0.07827002,-0.01264477,-0.5382906,0.1698143,0.8045678,36.56242,-6.964545,-34.25704,992.0889
0.041812897,0.1089378,0.1966868,0.1092375,-0.528469,0.1693428,0.8083563,36.56242,-6.964545,-34.25704,992.0872
0.046732426,0.1089276,-0.04035024,-0.1954594,-0.536312,0.1683425,0.805961,36.56242,-6.964545,-34.25704,992.0872
0.051651478,0.04703825,0.2557658,0.0483928,-0.5445721,0.1503235,0.8005957,36.56242,-6.964545,-34.25704,992.0872
0.056571007,0.2941952,0.018673,0.1702367,-0.5406331,0.1589873,0.8086097,36.56242,-6.964545,-34.25704,992.0872
0.061490059,0.170388,-0.0405531,0.1091926,-0.5358066,0.1779592,0.8135482,36.25087,-6.961904,-34.25771,992.0872
0.066408634,0.2320824,-0.218264,0.1090282,-0.5324888,0.1801213,0.8038796,36.25087,-6.961904,-34.25771,992.0872
0.071328163,0.04659053,-0.04048349,0.04804176,-0.542235,0.1746621,0.8042701,36.25087,-6.961904,-34.25771,992.0872
0.076247215,-0.01524021,-0.09974699,0.1089679,-0.5362871,0.1697413,0.8094044,36.25087,-6.961904,-34.25771,992.0872
0.081166744,-0.0152112,0.3741427,-0.07385454,-0.5382299,0.161501,0.8057573,36.25087,-6.961904,-34.25771,992.0872
0.086085796,0.2937475,0.07789142,0.1699213,-0.5430882,0.1531978,0.8040744,36.25087,-6.961904,-34.25771,992.0872
0.091005325,0.3553838,0.01864667,0.2917079,-0.5426311,0.1672467,0.8093765,36.25087,-6.961904,-34.25771,992.0872
0.098383904,0.1697416,0.01857321,0.1086025,-0.5359493,0.1825728,0.8015589,36.25087,-6.961904,-34.25771,992.0872
0.103302956,-0.1393529,0.2554751,0.1694906,-0.5363182,0.1702831,0.8065088,36.25087,-6.961904,-34.25771,992.0872
0.108222485,0.1079017,0.136923,-0.01340816,-0.5382525,0.1663661,0.8063991,36.25648,-7.695193,-34.28018,992.0872
0.113141537,0.04605184,-0.04084343,0.04755656,-0.5407481,0.1702977,0.8036324,36.25648,-7.695193,-34.28018,992.0872
0.118060112,0.04602295,0.07759239,-0.07436675,-0.5387797,0.1698099,0.8045717,36.25648,-7.695193,-34.28018,992.0872
0.122979641,-0.01580743,-0.0408666,-0.01344034,-0.5348868,0.1708473,0.8031164,36.25648,-7.695193,-34.28018,992.0854
0.127898693,0.1078054,0.07760651,-0.01343191,-0.5406641,0.1686904,0.8113487,36.25648,-7.695193,-34.28018,992.0854
0.132818222,-0.01580702,0.07755769,0.04753281,-0.542681,0.1678248,0.80454,36.25648,-7.695193,-34.28018,992.0854
0.137737274,-0.0775791,0.07745315,-0.07437135,-0.538252,0.1687759,0.807933,36.25648,-7.695193,-34.28018,992.0854
0.142656803,-0.07754979,0.01817145,-0.01340662,-0.5352717,0.1672677,0.8117444,36.25648,-7.695193,-34.28018,992.0854
0.147575378,-0.0156996,0.136626,0.04751979,-0.5417423,0.1698377,0.8016837,36.25648,-7.695193,-34.28018,992.0854
0.154954433,0.1079181,0.2550192,-0.1353364,-0.5382027,0.1691636,0.8132858,36.25648,-7.695193,-34.28018,992.0854
0.159873962,0.04606823,-0.1005019,-0.1352514,-0.5377293,0.1711268,0.8128594,36.93348,-6.601069,-34.245,992.0854
0.164792538,-0.07754425,0.01799006,-0.0742484,-0.5377657,0.1692678,0.8079447,36.93348,-6.601069,-34.245,992.0854
0.169712067,-0.1393358,0.1364077,-0.0132646,-0.5386963,0.1657926,0.8107542,36.93348,-6.601069,-34.245,992.0854
0.174631119,0.1078799,0.07710767,0.04768085,-0.5397239,0.1687718,0.8074594,36.93348,-6.601069,-34.245,992.0854
0.179550648,0.1078316,0.1363295,-0.07426167,-0.5421965,0.1736238,0.8076352,36.93348,-6.601069,-34.245,992.0854
0.184469700,0.0459818,0.2546913,-0.01327786,-0.5397002,0.1687264,0.8098854,36.93348,-6.601069,-34.245,992.0854
0.189389229,-0.1394321,0.01765498,0.0476485,-0.5364053,0.169968,0.7972743,36.93348,-6.601069,-34.245,992.0854
0.194308281,-0.1393251,0.07687689,0.04761856,-0.5358494,0.1814165,0.8112318,36.93348,-6.601069,-34.245,992.0854
0.199226856,-0.07749438,0.1361174,-0.2570588,-0.539194,0.1648406,0.8092711,36.93348,-6.601069,-34.245,992.0854
0.204146385,-0.07746507,-0.04163001,-0.07412416,-0.5439816,0.159777,0.8169166,36.93348,-6.601069,-34.245,992.0819
0.209065437,-0.2627625,-0.2785359,-0.1959136,-0.5300566,0.1849904,0.8054724,36.56242,-6.964545,-34.25704,992.0819
0.216444016,-0.07705231,0.3731038,-0.1347919,-0.5449967,0.1463381,0.8048412,36.56242,-6.964545,-34.25704,992.0819
0.221363545,-0.2005874,0.0175084,-0.07377005,-0.5421975,0.168804,0.8045675,36.56242,-6.964545,-34.25704,992.0819
0.226282597,0.04672501,-0.04167985,0.2308854,-0.540372,0.1854665,0.8012025,36.56242,-6.964545,-34.25704,992.0819
0.231202126,-0.3240743,-0.1009053,-0.195743,-0.5313888,0.1750746,0.8134195,36.56242,-6.964545,-34.25704,992.0819
0.236121178,-0.3856528,-0.04162741,-0.2565572,-0.5371789,0.1618521,0.8135286,36.56242,-6.964545,-34.25704,992.0819
0.241040707,0.2324683,0.1952564,-0.07364205,-0.5460643,0.1522871,0.7992143,36.56242,-6.964545,-34.25704,992.0837
0.245959282,0.1087775,0.01747189,0.2310708,-0.5480783,0.1692565,0.8036592,36.56242,-6.964545,-34.25704,992.0837
0.250878334,-0.01489377,-0.1602195,0.1091279,-0.535786,0.1726158,0.8124056,36.56242,-6.964545,-34.25704,992.0837
0.255800247,0.04687824,-0.04169002,-0.07373293,-0.5324222,0.173243,0.8065717,36.56242,-6.964545,-34.25704,992.0837
0.260716915,-0.01495267,0.07676502,-0.1346812,-0.5367662,0.1629674,0.8062779,36.24807,-6.595259,-34.24648,992.0837
0.265636444,0.1086014,0.01748376,0.0481957,-0.540758,0.167906,0.8011281,36.24807,-6.595259,-34.24648,992.0837
0.270555496,-0.01501151,0.01747268,-0.07365143,-0.5397288,0.1721565,0.8090246,36.24807,-6.595259,-34.24648,992.0837
0.275475025,-0.1385856,0.07669472,0.04823084,-0.5362724,0.172124,0.8123939,36.24807,-6.595259,-34.24648,992.0837
0.282853603,0.04681345,0.07667822,-0.1346069,-0.5402632,0.1727211,0.8046772,36.24807,-6.595259,-34.24648,992.0819
0.287772656,0.04678408,0.07664872,-0.1345223,-0.5367689,0.172616,0.8119282,36.24807,-6.595259,-34.24648,992.0819
0.292691231,-0.1386108,-0.04179105,-0.378129,-0.5436288,0.1682399,0.8079599,36.24807,-6.595259,-34.24648,992.0819
0.297610760,-0.01492078,-0.04182066,-0.07326316,-0.5377348,0.1721016,0.8128907,36.24807,-6.595259,-34.24648,992.0819
0.302532673,-0.07669344,-0.04181297,0.1095751,-0.5406503,0.1628776,0.8092201,36.24807,-6.595259,-34.24648,992.0819
0.307449341,-0.07662588,0.01742782,-0.07326686,-0.5339082,0.173266,0.8046425,36.25648,-7.695193,-34.28018,992.0819
0.312368393,0.04700577,-0.04181614,-0.07318253,-0.536757,0.1663249,0.8092987,36.25648,-7.695193,-34.28018,992.0819
0.317287922,-0.01484466,0.076639,-0.2559288,-0.5392856,0.1703201,0.8031356,36.25648,-7.695193,-34.28018,992.0819
0.322206974,-0.1383994,0.01739504,0.04886024,-0.5406652,0.1638706,0.808281,36.25648,-7.695193,-34.28018,992.0863
0.327125549,0.1088934,-0.04190463,0.109805,-0.5333695,0.1669068,0.8058908,36.25648,-7.695193,-34.28018,992.0863
0.332045078,-0.2001241,0.07658769,-0.1339934,-0.5411385,0.1619074,0.8087075,36.25648,-7.695193,-34.28018,992.0863
0.339423657,0.1089359,-0.2195751,-0.01208856,-0.5387672,0.1750898,0.8091107,36.25648,-7.695193,-34.28018,992.0863
0.344342709,-0.01465783,-0.101027,-0.1948924,-0.5422523,0.1693912,0.7992459,36.25648,-7.695193,-34.28018,992.0863
0.349262238,-0.01464863,-0.1601966,-0.1338519,-0.5387205,0.1634281,0.8067942,36.25648,-7.695193,-34.28018,992.0863
0.354181290,-0.1382035,-0.100863,-0.01189355,-0.5402263,0.1678288,0.8054911,36.25648,-7.695193,-34.28018,992.0863
0.359100819,-0.07631523,-0.04162243,0.04901278,-0.5381779,0.1614012,0.8110946,36.93436,-7.321603,-34.65056,992.0863
0.364019871,-0.01446581,-0.1007921,0.1099383,-0.5382793,0.1736501,0.8080894,36.93436,-7.321603,-34.65056,992.0846
0.368939400,0.04730592,0.1953619,-0.1338602,-0.5352787,0.1701741,0.8128088,36.93436,-7.321603,-34.65056,992.0846
0.373857975,-0.07626848,0.01759587,-0.07283897,-0.5455813,0.1633933,0.8053929,36.93436,-7.321603,-34.65056,992.0846
0.378777027,0.04736298,0.07681779,-0.07281238,-0.5373374,0.1684244,0.8011166,36.93436,-7.321603,-34.65056,992.0846
0.383700371,-0.1380517,0.07673235,0.04910765,-0.5383211,0.172766,0.8032061,36.93436,-7.321603,-34.65056,992.0846
0.388615608,-0.07614414,0.0174511,0.04909594,-0.5392231,0.1658608,0.8068764,36.93436,-7.321603,-34.65056,992.0846
0.393535137,-0.01429483,-0.04175568,-0.0728092,-0.5377671,0.1711993,0.8089778,36.93436,-7.321603,-34.65056,992.0846
0.398454189,-0.1379082,-0.1602141,0.04907251,-0.5367975,0.1668849,0.8054327,36.93436,-7.321603,-34.65056,992.0846
0.403373718,-0.1996425,-0.04172177,-0.07281348,-0.5416796,0.1711639,0.8090087,36.93436,-7.321603,-34.65056,992.0828
0.410752297,-0.1377694,0.07670918,-0.1946,-0.5406641,0.1686904,0.8113487,36.24807,-6.595259,-34.24648,992.0828
0.415671349,-0.1376246,0.01742804,-0.1945352,-0.5387496,0.1644482,0.8043995,36.24807,-6.595259,-34.24648,992.0828
0.420590878,-0.3229232,0.1358645,-0.01158243,-0.5344474,0.1772154,0.8018604,36.24807,-6.595259,-34.24648,992.0828
0.425509453,-0.2609188,0.01736894,-0.3771406,-0.5323219,0.1687112,0.8141942,36.24807,-6.595259,-34.24648,992.0828
0.430428505,-0.075331,0.07653525,-0.1941496,-0.5416105,0.1580127,0.8081009,36.24807,-6.595259,-34.24648,992.0828
0.435348034,-0.1370464,0.01723558,-0.1940468,-0.5490634,0.1629928,0.7990966,36.24807,-6.595259,-34.24648,992.0828
0.440267086,-0.2605826,-0.2789031,-0.1330069,-0.5340228,0.2028987,0.8109345,36.24807,-6.595259,-34.24648,992.0828
0.445186615,-0.5693874,0.3727238,-0.2547976,-0.5318366,0.1518464,0.8034532,36.24807,-6.595259,-34.24648,992.0811
0.450105667,-0.01289419,0.1356692,-0.07190269,-0.5336887,0.1516292,0.8141432,36.24807,-6.595259,-34.24648,992.0811
0.455024719,-0.01290551,0.01708075,0.05005506,-0.5572668,0.144865,0.7995538,36.56512,-6.612782,-33.79886,992.0811
0.459943771,0.1107056,-0.1605918,0.2328159,-0.5388438,0.1795763,0.8039143,36.56512,-6.612782,-33.79886,992.0811
0.467322826,0.04879977,0.07639863,0.1107414,-0.5329418,0.1761903,0.8052139,36.56512,-6.612782,-33.79886,992.0811
0.472241879,0.1105706,-0.04205957,-0.07210127,-0.5451171,0.1711602,0.8075802,36.56512,-6.612782,-33.79886,992.0811
0.477160931,0.1104623,-0.04208896,0.110698,-0.5397571,0.1813721,0.8117479,36.56512,-6.612782,-33.79886,992.0811
0.482080460,-0.2602994,0.01715184,-0.07210635,-0.5382439,0.1581525,0.8022514,36.56512,-6.612782,-33.79886,992.0811
0.486999512,-0.07478972,0.1355886,-0.1329599,-0.5323086,0.1604885,0.8105317,36.56512,-6.612782,-33.79886,992.0811
0.491919041,0.1106228,0.135615,-0.132953,-0.5460085,0.1565197,0.8076037,36.56512,-6.612782,-33.79886,992.0811
0.496838093,0.1106116,0.01704516,0.1717205,-0.5422172,0.1698061,0.8031431,36.56512,-6.612782,-33.79886,992.0811
0.501756668,0.1105227,-0.1013572,0.1715935,-0.5406831,0.1687266,0.8094079,36.56512,-6.612782,-33.79886,992.0811
0.506676674,-0.01313031,0.01715387,0.1105869,-0.5382286,0.1721063,0.8124094,35.87421,-6.59209,-34.24728,992.0811
0.511595249,-0.01314146,0.01710584,-0.01129947,-0.5382149,0.1696692,0.8123311,35.87421,-6.59209,-34.24728,992.0811
0.516514778,-0.136775,-0.101371,-0.01127322,-0.5417691,0.1771218,0.8033741,35.87421,-6.59209,-34.24728,992.0811
0.521433830,-0.1984711,0.1355875,-0.07214586,-0.5421117,0.167675,0.8127847,35.87421,-6.59209,-34.24728,992.0811
0.526353359,-0.2601479,-0.1014111,-0.2548928,-0.5284137,0.1711655,0.8152118,35.87421,-6.59209,-34.24728,992.0837
0.533731938,0.1725522,-0.04219428,0.2936476,-0.5470616,0.1556902,0.7993316,35.87421,-6.59209,-34.24728,992.0837
0.538650990,-0.07476201,-0.1605408,0.1107283,-0.5446315,0.1726178,0.8081085,35.87421,-6.59209,-34.24728,992.0837
0.543570519,-0.1365553,0.135688,0.1106013,-0.5358581,0.1804689,0.8097448,35.87421,-6.59209,-34.24728,992.0837
0.548489571,-0.1364501,-0.0420963,-0.1940582,-0.536852,0.1732576,0.8036954,35.87421,-6.59209,-34.24728,992.0837
0.553408146,-0.1363644,0.1948251,-0.1330183,-0.5396602,0.1657566,0.8122175,36.23235,-6.552739,-35.52344,992.0837
0.558327675,-0.1363175,0.07627386,0.1716361,-0.5382654,0.1678374,0.8059608,36.23235,-6.552739,-35.52344,992.0837
0.563246727,0.04917249,0.07618876,0.1106295,-0.5387304,0.1701975,0.8099246,36.23235,-6.552739,-35.52344,992.0837
0.568166256,-0.136321,-0.1015583,-0.1331503,-0.5425865,0.1676434,0.8142442,36.23235,-6.552739,-35.52344,992.0837
0.573085308,-0.01263248,-0.04233589,0.0497065,-0.5392634,0.1722063,0.8065947,36.23235,-6.552739,-35.52344,992.0837
0.578004837,-0.1361887,-0.2199898,-0.07219899,-0.5377738,0.1707301,0.8079917,36.23235,-6.552739,-35.52344,992.0837
0.582923412,0.1111028,0.1354907,-0.1939705,-0.5406783,0.1687176,0.8098931,36.23235,-6.552739,-35.52344,992.0837
0.587842465,0.04927036,0.07619113,-0.01109464,-0.5382068,0.1590458,0.8066495,36.23235,-6.552739,-35.52344,992.0837
0.592761994,-0.3215694,0.135395,-0.1329045,-0.5416998,0.1697561,0.8060505,36.23235,-6.552739,-35.52344,992.0837
0.597681046,-0.1360213,0.1945988,-0.07190304,-0.5349057,0.1800447,0.8068102,36.23235,-6.552739,-35.52344,992.0837
0.602600575,-0.1359552,-0.1608472,-0.1937321,-0.5383085,0.1655091,0.8000602,36.56523,-7.331189,-34.26827,992.0837
0.609979153,-0.1976092,-0.04235985,-0.07173274,-0.536219,0.1609315,0.8110635,36.56523,-7.331189,-34.26827,992.082
0.614898205,-0.07392099,0.01686252,-0.193562,-0.5469945,0.1637586,0.8112426,36.56523,-7.331189,-34.26827,992.082
0.619817734,-0.07383568,-0.04241828,-0.07156608,-0.5378422,0.1737543,0.8027483,36.56523,-7.331189,-34.26827,992.082
0.624736786,-0.07380874,-0.04237296,-0.07155939,-0.5324487,0.1771514,0.8062117,36.56523,-7.331189,-34.26827,992.082
0.629656315,-0.1973459,0.01684942,-0.1933887,-0.5422273,0.17079,0.8026893,36.56523,-7.331189,-34.26827,992.082
0.634574890,-0.3208443,-0.04235691,-0.0104941,-0.5348003,0.1687525,0.8108171,36.56523,-7.331189,-34.26827,992.082
0.639493942,0.05006905,0.1354059,-0.07134808,-0.541618,0.1585092,0.8076314,36.56523,-7.331189,-34.26827,992.082
0.644413471,-0.07352651,-0.04230379,-0.0712841,-0.5329328,0.1737623,0.8046504,36.56523,-7.331189,-34.26827,992.082
0.649332523,-0.1352818,0.01703024,-0.01034045,-0.5334473,0.1791104,0.8053117,36.56523,-7.331189,-34.26827,992.082
0.654252052,-0.2587998,0.2538772,-0.1930497,-0.5455883,0.1662997,0.8064572,36.24527,-6.228615,-34.23524,992.082
0.659171105,-0.1968746,-0.1016246,-0.01015524,-0.5367609,0.1653682,0.808297,36.24527,-6.228615,-34.23524,992.082
0.664089680,-0.07314795,0.01690524,-0.3147963,-0.5396751,0.1667495,0.8112784,36.24527,-6.228615,-34.23524,992.082
0.669009209,-0.1967437,-0.04233838,-0.009970238,-0.5461205,0.163967,0.8005604,36.24527,-6.228615,-34.23524,992.082
0.676388264,-0.07297485,-0.1015129,-0.1317968,-0.532397,0.1712661,0.8079647,36.24527,-6.228615,-34.23524,992.082
0.681306839,-0.1965319,0.2538373,-0.07073861,-0.5406501,0.159502,0.8071698,36.24527,-6.228615,-34.23524,992.082
0.686226368,-0.1964085,-0.1608603,-0.009757037,-0.5446204,0.1672925,0.8059955,36.24527,-6.228615,-34.23524,992.082
0.691145420,-0.01091948,-0.1607965,-0.1316061,-0.5416886,0.1644308,0.8039376,36.24527,-6.228615,-34.23524,992.0803
0.696064949,0.05088885,-0.1606954,-0.1315617,-0.5406831,0.1687266,0.8094079,36.24527,-6.228615,-34.23524,992.0803
0.700984001,-0.1345475,-0.1013987,0.1122313,-0.5406786,0.1720932,0.8119435,36.5577,-6.951789,-34.64013,992.0803
0.705903530,0.05092204,0.07640134,-0.07059326,-0.5357822,0.1644113,0.8077728,36.5577,-6.951789,-34.64013,992.0803
0.710823536,-0.07267411,0.1948008,0.1731805,-0.5377649,0.168302,0.8074282,36.5577,-6.951789,-34.64013,992.0803
0.715741158,-0.1962119,0.0762682,-0.009701405,-0.5387491,0.1668582,0.8059334,36.5577,-6.951789,-34.64013,992.0803
0.720660687,-0.0725052,-0.04230153,0.05122268,-0.5392321,0.1682888,0.8074399,36.5577,-6.951789,-34.64013,992.0803
0.725579739,-0.01063873,0.0170325,-0.1316018,-0.537752,0.1668307,0.8078665,36.5577,-6.951789,-34.64013,992.0803
0.730500698,-0.1342156,-0.1015374,0.0512923,-0.5402508,0.1688399,0.8035816,36.5577,-6.951789,-34.64013,992.0803
0.737877846,-0.01058331,-0.1013859,-0.1315292,-0.5348205,0.1673447,0.8078589,36.5577,-6.951789,-34.64013,992.0803
0.742796898,-0.07239754,-0.1013222,-0.009591389,-0.543118,0.1643449,0.8078308,36.5577,-6.951789,-34.64013,992.0803
0.747716427,-0.1959356,0.01717026,-0.009585343,-0.5381734,0.1647678,0.8136302,36.5577,-6.951789,-34.64013,992.0803
0.752635479,-0.01040815,-0.04199911,-0.07051647,-0.5382796,0.1678646,0.8045052,36.24335,-6.582503,-34.62956,992.0803
0.757555008,0.05141928,-0.1012058,-0.009515875,-0.5387435,0.1750445,0.8115367,36.24335,-6.582503,-34.62956,992.0803
0.762473583,-0.01039512,-0.04192768,-0.1313842,-0.5362931,0.1683062,0.8079018,36.24335,-6.582503,-34.62956,992.0803
0.767393112,-0.01038864,0.01731311,-0.07040282,-0.54311,0.1662584,0.8098342,36.24335,-6.582503,-34.62956,992.0803
0.772312164,-0.1957671,0.1357682,-0.1922137,-0.5362543,0.1638923,0.8092166,36.24335,-6.582503,-34.62956,992.0829
0.777231693,-0.01031741,0.01732859,0.05163647,-0.5383006,0.1674225,0.8020636,36.24335,-6.582503,-34.62956,992.0829
0.782152653,0.0515099,0.313427,-0.07023197,-0.5382906,0.1698143,0.8045678,36.24335,-6.582503,-34.62956,992.0829
0.787070275,-0.0103045,0.01713941,0.05162903,-0.5378416,0.1727886,0.8022318,36.24335,-6.582503,-34.62956,992.0829
0.791988850,-0.07206066,0.07632449,-0.009340548,-0.5402249,0.1658973,0.8044581,36.24335,-6.582503,-34.62956,992.0829
0.796907902,-0.01023328,0.07627657,-0.07025266,-0.5401859,0.1672688,0.8093571,36.24335,-6.582503,-34.62956,992.0829
0.804287434,0.113457,-0.0422613,-0.131181,-0.5406389,0.1633378,0.8106914,36.56523,-7.331189,-34.26827,992.0829
0.809206009,0.05166189,0.0762499,-0.07018063,-0.5348787,0.169385,0.8030695,36.56523,-7.331189,-34.26827,992.0829
0.814125061,-0.07193467,0.01695034,-0.1919917,-0.5406423,0.164791,0.8112236,36.56523,-7.331189,-34.26827,992.0829
0.819044590,-0.2573133,0.01699554,-0.1919477,-0.5412161,0.1707354,0.806078,36.56523,-7.331189,-34.26827,992.0829
0.823963642,-0.07174724,0.1354881,-0.06999106,-0.5417404,0.1703161,0.8021846,36.56523,-7.331189,-34.26827,992.0829
0.828883171,-0.009958956,-0.04225881,-0.009086538,-0.5377482,0.1711631,0.8109186,36.56523,-7.331189,-34.26827,992.0829
0.833802223,-0.1334974,0.1354295,-0.1918348,-0.5398047,0.1756772,0.8033116,36.56523,-7.331189,-34.26827,992.0829
0.838721752,-0.07163145,0.01691564,-0.2526706,-0.536303,0.1659145,0.8053975,36.56523,-7.331189,-34.26827,992.0829
0.843640328,-0.07160587,-0.1015424,-0.1306759,-0.5426743,0.1682941,0.8055261,36.56523,-7.331189,-34.26827,992.0829
0.848564148,-0.1951056,-0.04226413,-0.06967575,-0.5451187,0.1639305,0.8029786,36.94178,-6.982596,-33.80929,992.0829
0.853478909,-0.1332203,-0.0422561,-0.06965113,-0.535315,0.1683151,0.8078941,36.94178,-6.982596,-33.80929,992.0829
0.858397961,-0.0713158,-0.04224819,-0.1304679,-0.5338883,0.1780495,0.8096511,36.94178,-6.982596,-33.80929,992.0829
0.863317490,-0.1330919,0.1354402,0.05236804,-0.5455446,0.158501,0.8062068,36.94178,-6.982596,-33.80929,992.0829
0.870696068,0.05237969,0.01690231,-0.06942157,-0.5387578,0.1659105,0.8044465,36.94178,-6.982596,-33.80929,992.0829
0.875615120,-0.009396448,-0.04234131,0.1134143,-0.5425734,0.1627964,0.8126321,36.94178,-6.982596,-33.80929,992.0829
0.880534649,0.1142512,-0.1015478,-0.06937265,-0.5377437,0.1745296,0.8134542,36.94178,-6.982596,-33.80929,992.0829
0.885453701,-0.07120549,0.01694491,-0.1303045,-0.5421481,0.1658161,0.80787,36.94178,-6.982596,-33.80929,992.0829
0.890372277,-0.1329622,-0.1015318,-0.2521352,-0.5441204,0.1653472,0.805929,36.94178,-6.982596,-33.80929,992.0829
0.895291805,-0.009314557,0.01699803,-0.1910588,-0.5386938,0.1686808,0.8127889,36.94178,-6.982596,-33.80929,992.0829
0.900210858,-0.1329117,0.01702459,-0.008165662,-0.5421853,0.1682985,0.8055223,36.5577,-6.951789,-34.64013,992.0829
0.905130387,0.05257626,0.01697667,0.1136755,-0.5392632,0.1688306,0.8045443,36.5577,-6.951789,-34.64013,992.0829
0.910049439,-0.07102083,-0.04230425,-0.1301254,-0.5386949,0.1638611,0.8097212,36.5577,-6.951789,-34.64013,992.0829
0.914968968,-0.1327582,-0.04227757,-0.00818845,-0.5363358,0.1717635,0.8055853,36.5577,-6.951789,-34.64013,992.0829
0.919888020,0.2380757,0.0761778,-0.1909373,-0.5426201,0.165297,0.8093138,36.5577,-6.951789,-34.64013,992.0829
0.927266598,-0.009257427,-0.1015001,-0.008118255,-0.5377799,0.169295,0.8064891,36.5577,-6.951789,-34.64013,992.0829
0.932186127,-0.07103363,-0.101455,-0.1299492,-0.5417112,0.1692959,0.8045793,36.5577,-6.951789,-34.64013,992.0854
0.937105179,0.114396,0.01701905,0.1138428,-0.5378,0.1678872,0.803531,36.5577,-6.951789,-34.64013,992.0854
0.942024708,-0.1946833,0.07625996,-0.190857,-0.5372874,0.1678462,0.8059531,36.5577,-6.951789,-34.64013,992.0854
0.946943283,-0.009195345,-0.1014684,-0.00800228,-0.5387493,0.1702338,0.8079838,36.5577,-6.951789,-34.64013,992.0854
0.951862335,0.05259253,0.01698695,-0.007958972,-0.5402393,0.1693001,0.8050529,36.24807,-6.595259,-34.24648,992.0854
0.956781864,-0.009222584,-0.0422196,0.05296401,-0.5387254,0.1668128,0.8083594,36.24807,-6.595259,-34.24648,992.0854
0.961700917,0.1761876,-0.04215586,0.05296901,-0.5430878,0.1681445,0.8132933,36.24807,-6.595259,-34.24648,992.0854
0.966620445,-0.1328916,-0.1013811,-0.3736051,-0.5378217,0.1684109,0.8016058,36.24807,-6.595259,-34.24648,992.0854
0.971539021,-0.07102602,0.1355961,0.05309385,-0.5421814,0.1692552,0.806524,36.24807,-6.595259,-34.24648,992.0837
0.976458073,-0.009199355,0.07633375,-0.1906306,-0.5401791,0.1677381,0.8103431,36.24807,-6.595259,-34.24648,992.0837
0.981377602,0.1761914,0.2539849,0.1141366,-0.538722,0.1653596,0.8078273,36.24807,-6.595259,-34.24648,992.0837
0.986296654,0.1142987,0.1353594,-0.007828551,-0.5421719,0.169237,0.8074944,36.24807,-6.595259,-34.24648,992.0837
0.991216183,0.1142075,0.07605981,0.05307522,-0.5416559,0.1711186,0.8114347,36.24807,-6.595259,-34.24648,992.0837
0.996135235,0.05239261,-0.1609201,-0.06881327,-0.539634,0.1685994,0.8166783,36.24807,-6.595259,-34.24648,992.0837
1.001054764,-0.009422389,-0.04239014,0.05306594,-0.5353625,0.1717814,0.8050924,36.5549,-6.585144,-34.62889,992.0837
1.005973339,-0.009416494,0.01692536,-0.0688417,-0.5377351,0.1663161,0.8093064,36.5549,-6.585144,-34.62889,992.0837
1.013352394,-0.1330105,-0.04236086,-0.06879598,-0.5372999,0.1842643,0.8147337,36.5549,-6.585144,-34.62889,992.0837
1.018271923,-0.3800746,-0.04235284,-0.06869532,-0.5451791,0.1688682,0.7997386,36.5549,-6.585144,-34.62889,992.0837
1.023190498,-0.3180926,0.01694401,-0.190469,-0.5292797,0.1603337,0.8202126,36.5549,-6.585144,-34.62889,992.0837
1.028109550,0.1764996,0.07612909,0.1142598,-0.5489489,0.1458969,0.8004897,36.5549,-6.585144,-34.62889,992.0837
1.033029079,0.05280524,-0.1016364,0.1751251,-0.5475505,0.1648469,0.8049701,36.5549,-6.585144,-34.62889,992.0837
1.037948132,0.0527138,-0.160787,0.05315997,-0.534418,0.1819807,0.8078393,36.5549,-6.585144,-34.62889,992.0837
1.042867661,0.1144628,0.0169387,0.1140637,-0.5367979,0.1736362,0.8095334,36.5549,-6.585144,-34.62889,992.0837
1.047786713,0.238052,-0.1015194,-0.06876194,-0.5397187,0.1620114,0.8038439,36.5466,-6.203618,-35.06459,992.0837
1.052711487,-0.009303355,-0.1014928,-0.06871875,-0.5368286,0.1674268,0.8025371,36.5466,-6.203618,-35.06459,992.0854
1.057624817,0.1143055,-0.04225192,0.1141933,-0.5378062,0.1698278,0.8040788,36.5466,-6.203618,-35.06459,992.0854
1.062544346,0.05247102,-0.04222548,0.05322267,-0.5348411,0.1726881,0.8090014,36.5466,-6.203618,-35.06459,992.0854
1.067463398,0.052438,0.1947704,-0.007747893,-0.5368207,0.1693401,0.8045405,36.5466,-6.203618,-35.06459,992.0854
1.072382450,-0.1947232,-0.1607316,-0.007704759,-0.5402766,0.1717826,0.8027051,36.5466,-6.203618,-35.06459,992.0854
1.079761505,-0.1946368,0.07631477,-0.4341809,-0.5329508,0.1911552,0.8134623,36.5466,-6.203618,-35.06459,992.0854
1.084680557,-0.5652456,0.07622956,-0.3119573,-0.5415522,0.1434355,0.8052054,36.5466,-6.203618,-35.06459,992.0854
1.089600086,0.1147897,0.01694864,-0.0680702,-0.5434128,0.1480562,0.8179927,36.5466,-6.203618,-35.06459,992.0854
1.094519138,0.05295494,-0.04227633,-0.007052018,-0.5446776,0.1649914,0.7986392,36.5466,-6.203618,-35.06459,992.0854
1.099438667,0.05292169,-0.2199116,0.05379382,-0.5373353,0.1780639,0.8072522,36.56242,-6.964545,-34.25704,992.0854
1.104357243,0.05292729,0.1356434,0.0537983,-0.5303804,0.1755074,0.8168238,36.56242,-6.964545,-34.25704,992.0854
1.109276295,-0.008888062,-0.1013926,-0.1290278,-0.5474958,0.1642598,0.8102917,36.56242,-6.964545,-34.25704,992.0854
1.114195824,0.1765219,-0.1013475,0.05382641,-0.5372464,0.160535,0.8057183,36.56242,-6.964545,-34.25704,992.0854
1.119114876,-0.07077546,-0.1012838,0.1757051,-0.5431654,0.1678113,0.8050292,36.56242,-6.964545,-34.25704,992.0854
1.124035358,0.2381986,-0.04196848,0.05373964,-0.5353311,0.167864,0.8059376,36.56242,-6.964545,-34.25704,992.0854
1.128953457,0.1145043,0.01723513,0.1755419,-0.5397072,0.1716328,0.8109497,36.56242,-6.964545,-34.25704,992.0854
1.133872032,-0.009131672,0.1356717,-0.007379828,-0.5329239,0.1713343,0.804087,36.56242,-6.964545,-34.25704,992.0854
1.141251564,-0.1327648,-0.3382644,-0.06825262,-0.538249,0.1649129,0.8058669,36.56242,-6.964545,-34.25704,992.0854
1.146170616,-0.009136683,-0.1604459,0.1754814,-0.5363581,0.1698773,0.8021263,36.55962,-6.5979,-34.2458,992.0854
1.151089191,-0.07089355,0.1357642,0.05359263,-0.5397455,0.1692955,0.8055342,36.55962,-6.5979,-34.2458,992.0854
1.156008720,-0.009047541,0.01721287,0.1144961,-0.5411079,0.1681169,0.8157039,36.55962,-6.5979,-34.2458,992.0854
1.160927773,-0.07084332,-0.1604971,-0.1292669,-0.5372483,0.1692178,0.8108521,36.55962,-6.5979,-34.2458,992.0854
1.165847302,-0.07079886,-0.04196735,-0.1901229,-0.5347364,0.1623617,0.8135249,36.55962,-6.5979,-34.2458,992.0854
1.170766354,-0.0707738,0.01727344,0.0536877,-0.5397664,0.1688534,0.8030925,36.55962,-6.5979,-34.2458,992.0854
1.175685883,-0.07072935,0.1949245,-0.007302308,-0.5392001,0.1634055,0.8077685,36.55962,-6.5979,-34.2458,992.0881
1.180604935,0.1146807,0.01715873,0.05363942,-0.5406865,0.1701798,0.8099401,36.55962,-6.5979,-34.2458,992.0881
1.185523510,0.05284598,0.1355955,0.1145429,-0.5368159,0.1693311,0.8050258,36.55962,-6.5979,-34.2458,992.0881
1.192903042,-0.07074852,0.01705747,0.05365093,-0.5387269,0.1687443,0.8093925,36.55962,-6.5979,-34.2458,992.0881
1.197822094,-0.07072346,0.1354755,-0.0682379,-0.5382398,0.1682704,0.8088877,36.24055,-6.215858,-34.61832,992.0881
1.202740669,0.114706,0.07621328,0.1146164,-0.542644,0.168718,0.8089382,36.24055,-6.215858,-34.61832,992.0881
1.207660198,0.05285182,-0.04231928,-0.007329891,-0.5377669,0.1678237,0.8069274,36.24055,-6.215858,-34.61832,992.0881
1.212579250,-0.008963409,-0.1015815,0.05363099,-0.5372894,0.1673679,0.8054522,36.24055,-6.215858,-34.61832,992.0881
1.217498779,0.05282423,0.253806,-0.06825785,-0.5397324,0.1644485,0.8039221,36.24055,-6.215858,-34.61832,992.0881
1.222422123,-0.1326328,0.07598477,-0.007316114,-0.5378353,0.170848,0.801684,36.24055,-6.215858,-34.61832,992.0881
1.227337360,0.05283549,0.2536175,-0.1291475,-0.5358142,0.1692946,0.807444,36.24055,-6.215858,-34.61832,992.0881
1.232255936,-0.2561662,0.1942624,-0.06816754,-0.5392701,0.171737,0.8056086,36.24055,-6.215858,-34.61832,992.0881
1.237174988,-0.07060094,0.01655287,0.05378783,-0.5411604,0.1658068,0.8088327,36.24055,-6.215858,-34.61832,992.0881
1.242094517,-0.132358,0.1942229,-0.06812022,-0.537739,0.1653594,0.8083047,36.24055,-6.215858,-34.61832,992.0881
1.249473095,-0.1322721,0.1940585,-0.1899112,-0.5421779,0.167802,0.8059918,36.25087,-6.961904,-34.25771,992.0881
1.254392147,-0.07040703,0.1347407,-0.007037892,-0.5382856,0.1664296,0.8030027,36.25087,-6.961904,-34.25771,992.0881
1.259311676,-0.1321643,0.01617145,-0.00701432,-0.5407062,0.1711819,0.8085157,36.25087,-6.961904,-34.25771,992.0864
1.264230728,-0.008497766,-0.1023048,-0.06796619,-0.5372834,0.1688029,0.8069548,36.25087,-6.961904,-34.25771,992.0864
1.269150257,0.05328964,0.07542128,0.1758059,-0.5357769,0.1668121,0.8097919,36.25087,-6.961904,-34.25771,992.0864
1.274069309,-0.07032739,0.01614082,-0.1289328,-0.5406856,0.1658384,0.8073732,36.25087,-6.961904,-34.25771,992.0864
1.278988838,0.05328091,0.07538229,0.1148585,-0.5411673,0.1687131,0.809897,36.25087,-6.961904,-34.25771,992.0864
1.283907414,-0.1939196,0.07533494,-0.007049693,-0.5338523,0.1649618,0.8053469,36.25087,-6.961904,-34.25771,992.0864
1.288826466,-0.008451603,0.1345021,-0.007026121,-0.537769,0.1673453,0.8064265,36.25087,-6.961904,-34.25771,992.0864
1.293745995,0.0533358,0.01602589,-0.06793968,-0.5377385,0.1677693,0.8098387,36.93156,-6.954958,-34.63932,992.0864
1.298665047,-0.07033947,0.01601571,-0.06789701,-0.5382585,0.164931,0.8048965,36.93156,-6.954958,-34.63932,992.0847
1.303584576,0.05328822,-0.1024045,0.05401993,-0.5396881,0.1682209,0.8108402,36.93156,-6.954958,-34.63932,992.0847
1.308503628,-0.0703482,0.01608861,-0.06784999,-0.5391988,0.1648496,0.8087859,36.93156,-6.954958,-34.63932,992.0847
1.313422203,-0.008502542,0.01611573,-0.06780738,-0.5391259,0.1651919,0.8165649,36.93156,-6.954958,-34.63932,992.0847
1.320801735,-0.00845573,-0.1024585,-0.006825476,-0.5401978,0.1643987,0.806352,36.93156,-6.954958,-34.63932,992.0847
1.325720787,-0.07025192,-0.1024128,0.05413512,-0.5421191,0.1681715,0.8123152,36.93156,-6.954958,-34.63932,992.0847
1.330639362,-0.07022721,0.07531346,-0.06773488,-0.5426303,0.1662809,0.8088599,36.93156,-6.954958,-34.63932,992.0847
1.335558891,-0.1319652,-0.1024143,-0.06773064,-0.535367,0.1684149,0.8025568,36.93156,-6.954958,-34.63932,992.0847
1.340477943,-0.008298728,0.07527471,-0.06768809,-0.5377189,0.1667672,0.8112629,36.93156,-6.954958,-34.63932,992.0829
1.345397472,0.05348856,0.01603154,-0.006746707,-0.5363207,0.1673949,0.8044741,36.55962,-6.5979,-34.2458,992.0829
1.350316525,0.1770579,-0.04324881,0.1760307,-0.5412268,0.1693094,0.8040902,36.55962,-6.5979,-34.2458,992.0829
1.355236054,0.05338249,0.01601131,-0.1286699,-0.5377259,0.1696736,0.8123273,36.55962,-6.5979,-34.2458,992.0829
1.360154629,0.1151698,0.1344859,-0.006791382,-0.5383164,0.1727569,0.8036913,36.55962,-6.5979,-34.2458,992.0829
1.365074158,0.1151169,-0.1616893,0.05415003,-0.5411493,0.1604815,0.8067197,36.55962,-6.5979,-34.2458,992.0829
1.369993210,-0.008558315,0.01609279,-0.006801962,-0.5382453,0.1692452,0.808919,36.55962,-6.5979,-34.2458,992.0829
1.374912739,-0.008514157,0.01610127,0.05410117,-0.5406656,0.1706219,0.8123818,36.55962,-6.5979,-34.2458,992.0829
1.379831791,0.2386971,-0.0431419,-0.006850822,-0.5387422,0.1639518,0.8048691,36.55962,-6.5979,-34.2458,992.0872
1.384750843,-0.07044087,-0.1024036,0.1759075,-0.5372672,0.1692541,0.8089113,36.55962,-6.5979,-34.2458,992.0872
1.389670372,0.114969,0.01614534,-0.006976184,-0.5382736,0.1692996,0.8060077,36.55962,-6.5979,-34.2458,992.0872
1.394588947,0.1766982,-0.1023308,-0.006990921,-0.5396804,0.1643487,0.8092593,36.60901,-6.922553,-35.53387,992.0872
1.399508476,-0.1323619,-0.04303352,-0.006986503,-0.5393873,0.1767835,0.7965462,36.60901,-6.922553,-35.53387,992.0872
1.406887531,-0.3794624,0.07543586,-0.3726219,-0.5249959,0.1847081,0.822901,36.60901,-6.922553,-35.53387,992.0872
1.411806107,-0.3792047,0.1938173,-0.2505135,-0.5479522,0.140084,0.7988385,36.60901,-6.922553,-35.53387,992.0872
1.416725636,-0.07009497,0.2529101,-0.006665002,-0.5561365,0.131081,0.8068712,36.60901,-6.922553,-35.53387,992.0872
1.421644688,0.1153535,-0.4579149,0.2370112,-0.5364893,0.196649,0.8049279,36.60901,-6.922553,-35.53387,992.0872
1.426564217,-0.3790919,-0.04310766,-0.2505392,-0.5149192,0.2092808,0.8177798,36.60901,-6.922553,-35.53387,992.0872
1.431483269,-0.502379,0.1345813,-0.6160046,-0.5376484,0.1516845,0.8093222,36.60901,-6.922553,-35.53387,992.0872
1.436402798,-0.1313322,0.2529442,-0.3109702,-0.5600356,0.122823,0.8032396,36.60901,-6.922553,-35.53387,992.0872
1.441321850,0.3013411,-0.3394705,0.2984817,-0.5490018,0.1594993,0.803354,36.56051,-7.318433,-34.65136,992.0872
1.446240425,0.4247547,-0.1615768,0.2373188,-0.5344195,0.1839122,0.8088723,36.56051,-7.318433,-34.65136,992.0872
1.451159954,0.05373736,-0.1023167,0.05441567,-0.5378569,0.1805328,0.8053935,36.56051,-7.318433,-34.65136,992.0872
1.456079006,-0.008117317,0.1346612,-0.006574809,-0.5362511,0.1658147,0.8107348,36.56051,-7.318433,-34.65136,992.0872
1.460998535,0.1773116,-0.04314111,0.176279,-0.5392227,0.1591095,0.8027756,36.56051,-7.318433,-34.65136,992.0872
1.468377113,0.1771835,0.01602091,-0.00656449,-0.542172,0.1600759,0.8018598,36.56051,-7.318433,-34.65136,992.0872
1.473296166,0.1770722,0.01606668,0.1152565,-0.5368611,0.1790613,0.8063092,36.56051,-7.318433,-34.65136,992.0872
1.478215695,-0.008424071,-0.04317648,-0.06762737,-0.5364098,0.1882994,0.8080583,36.56051,-7.318433,-34.65136,992.0872
1.483134747,-0.2555664,0.1936896,-0.3722132,-0.5367839,0.1644478,0.8053545,36.56051,-7.318433,-34.65136,992.0872
1.488054276,0.05358201,0.1343534,-0.06735107,-0.5429741,0.1520144,0.8152029,36.56051,-7.318433,-34.65136,992.0872
1.492972851,-0.008194845,0.07505456,0.05456553,-0.5503994,0.1487447,0.8039916,36.23785,-6.567621,-35.0765,992.0872
1.497891903,0.1772147,0.1342219,0.176329,-0.5392331,0.163469,0.8043721,36.23785,-6.567621,-35.0765,992.0872
1.502811432,0.05346161,0.01567147,0.2981116,-0.5388365,0.1824555,0.8064342,36.23785,-6.567621,-35.0765,992.0854
1.507730484,-0.1319376,-0.1027485,0.05417578,-0.5367728,0.1716593,0.8109265,36.23785,-6.567621,-35.0765,992.0854
1.512650013,-0.008251739,-0.04348817,-0.06769425,-0.5382158,0.1614738,0.807213,36.23785,-6.567621,-35.0765,992.0854
1.517570973,-0.07008684,-0.1026568,-0.06763257,-0.5460863,0.1687233,0.8070245,36.23785,-6.567621,-35.0765,992.0854
1.522488594,-0.008280156,-0.102555,0.1151831,-0.5411544,0.1672418,0.8103353,36.23785,-6.567621,-35.0765,992.0854
1.529867172,-0.008311167,0.01597051,-0.006665757,-0.5372888,0.1697778,0.8069861,36.23785,-6.567621,-35.0765,992.0854
1.534786224,0.05353437,0.01599775,-0.1895113,-0.5333187,0.1653629,0.8102107,36.23785,-6.567621,-35.0765,992.0854
1.539705753,-0.1319231,-0.04324531,-0.006619077,-0.5378488,0.1699094,0.7997119,36.55682,-6.231256,-34.23457,992.0838
1.544624329,-0.008256692,-0.04325537,-0.06755206,-0.5411983,0.1658793,0.8049511,36.55682,-6.231256,-34.23457,992.0838
1.549543381,0.05353059,0.0160234,0.05432637,-0.5411482,0.1653012,0.8097875,36.55682,-6.231256,-34.23457,992.0838
1.554462910,-0.008285109,0.01605052,0.05429225,-0.5387791,0.1722197,0.8061056,36.55682,-6.231256,-34.23457,992.0838
1.559381962,0.05348272,-0.043174,0.05427728,-0.5382532,0.1673318,0.8069156,36.55682,-6.231256,-34.23457,992.0838
1.564301491,-0.1319553,-0.1023427,-0.06763112,-0.5382336,0.1663298,0.8083399,36.55682,-6.231256,-34.23457,992.0838
1.569220543,0.1152946,-0.220763,0.0542665,-0.5416657,0.1653512,0.8068801,36.55682,-6.231256,-34.23457,992.0838
1.574139118,0.05344009,-0.1022141,0.0542324,-0.5397007,0.1663165,0.8083515,36.55682,-6.231256,-34.23457,992.0838
1.581518650,-0.008392292,0.1347771,0.1151759,-0.5421448,0.1677385,0.8093882,36.55682,-6.231256,-34.23457,992.0821
1.586437702,-0.07020794,-0.1022397,-0.006732464,-0.5382316,0.1668081,0.8088408,36.55682,-6.231256,-34.23457,992.0821
1.591356278,0.05343909,0.01625338,-0.1285642,-0.5348687,0.1717768,0.8055737,36.24335,-6.582503,-34.62956,992.0821
1.596275807,-0.1319601,0.01622456,-0.006609194,-0.5367565,0.1687348,0.8108326,36.24335,-6.582503,-34.62956,992.0821
1.601194859,-0.1936981,0.01619574,-0.06756133,-0.536328,0.1645157,0.8019542,36.24335,-6.582503,-34.62956,992.0821
1.606114388,-0.1317361,0.253099,-0.1894123,-0.5392463,0.168316,0.8059842,36.24335,-6.582503,-34.62956,992.0821
1.611033440,-0.1317116,0.07527821,-0.006501068,-0.5421279,0.1672239,0.8108283,36.24335,-6.582503,-34.62956,992.0821
1.615952969,0.2392188,-0.04316066,-0.0673767,-0.542704,0.1669044,0.8015975,36.24335,-6.582503,-34.62956,992.0821
1.620872021,-0.1935223,0.1345469,-0.006397244,-0.5367048,0.1628495,0.8125856,36.24335,-6.582503,-34.62956,992.0803
1.625790596,0.1773887,0.0160521,-0.06733037,-0.5387464,0.1663707,0.8059177,36.24335,-6.582503,-34.62956,992.0803
1.630710125,-0.008107767,-0.1024054,-0.06732636,-0.5377351,0.1663161,0.8093064,36.24335,-6.582503,-34.62956,992.0803
1.635629177,0.1154614,0.2529827,-0.06732235,-0.5407,0.1692412,0.807968,36.24335,-6.582503,-34.62956,992.0803
1.640548706,-0.00819461,0.01596621,-0.006362044,-0.5397814,0.1698464,0.8021535,35.8751,-7.312623,-34.65285,992.0803
1.647927284,0.05353696,-0.2209437,0.1764171,-0.5387533,0.1692771,0.806982,35.8751,-7.312623,-34.65285,992.0803
1.652846337,-0.008336991,0.07530443,0.05447028,-0.5387625,0.1659196,0.8039613,35.8751,-7.312623,-34.65285,992.0803
1.657765865,-0.07015263,-0.04320892,-0.006462788,-0.5377637,0.1697462,0.8084456,35.8751,-7.312623,-34.65285,992.0803
1.662684918,-0.07014739,0.1344987,-0.006497028,-0.541316,0.1810528,0.8020398,35.8751,-7.312623,-34.65285,992.0803
1.667604447,-0.07008389,-0.1024435,-0.006454649,-0.5371749,0.1628088,0.8145303,35.8751,-7.312623,-34.65285,992.0803
1.672523022,-0.07000106,0.1344785,-0.006412329,-0.5390912,0.1506601,0.8112433,35.8751,-7.312623,-34.65285,992.0803
1.677442551,0.05362646,0.01592802,-0.006427472,-0.5487452,0.1826119,0.7934111,35.8751,-7.312623,-34.65285,992.0803
1.682361603,-0.4407802,-0.0431662,-0.2501337,-0.5196991,0.191184,0.8182098,35.8751,-7.312623,-34.65285,992.0803
1.687281132,-0.007854133,0.1344855,-0.1890012,-0.5457113,0.1226793,0.8176835,35.8751,-7.312623,-34.65285,992.0803
1.692200184,-0.007907431,0.07513084,0.1157458,-0.5606537,0.1341562,0.7968106,36.24346,-7.30091,-35.09898,992.0803
1.697119236,0.6100151,-0.04336375,0.4202823,-0.5334522,0.1824951,0.8068768,36.24346,-7.30091,-35.09898,992.0803
1.702039242,0.177041,-0.0433364,0.2982014,-0.5295407,0.1868719,0.8094127,36.24346,-7.30091,-35.09898,992.0829
1.706957340,-0.07021784,0.1343526,0.05426548,-0.5435882,0.1676799,0.8118259,36.24346,-7.30091,-35.09898,992.0829
1.714336872,0.1770542,0.07497443,0.05432922,-0.5406394,0.160928,0.8091575,36.24346,-7.30091,-35.09898,992.0829
1.719255924,0.1151026,0.1933375,0.1151748,-0.5462273,0.1771908,0.7975865,36.24346,-7.30091,-35.09898,992.0829
1.724174500,-0.1321367,-0.2213222,0.05418444,-0.53092,0.186208,0.8181424,36.24346,-7.30091,-35.09898,992.0829
1.729094029,-0.1938552,0.2525881,-0.2504013,-0.5371596,0.1550645,0.8113686,36.24346,-7.30091,-35.09898,992.0829
1.734013081,0.3006201,0.01544149,-0.006572019,-0.5563005,0.1386281,0.7944906,36.24346,-7.30091,-35.09898,992.0829
1.738932610,-0.008576062,-0.1623045,0.1152681,-0.5446584,0.1707407,0.8041642,36.55692,-6.949663,-34.70398,992.0829
1.743851662,0.1150128,0.1339998,-0.006678605,-0.5314879,0.1844262,0.8088647,36.55692,-6.949663,-34.70398,992.0829
1.748771191,0.05311972,0.01546816,0.1760987,-0.5363368,0.1761049,0.8081522,36.55692,-6.949663,-34.70398,992.0829
1.753689766,-0.008734479,-0.04377455,-0.1286019,-0.5387556,0.1630132,0.802897,36.55692,-6.949663,-34.70398,992.0829
1.758608818,-0.1322931,0.07468172,-0.1894391,-0.5402058,0.1624853,0.8043485,36.55692,-6.949663,-34.70398,992.0829
1.763533592,0.05315557,-0.2214373,0.1153656,-0.5440297,0.1608335,0.8125811,36.55692,-6.949663,-34.70398,992.0829
1.768447399,0.1148848,-0.1028693,-0.006581116,-0.5367401,0.1658103,0.8107387,36.55692,-6.949663,-34.70398,992.0829
1.773366928,-0.0705335,-0.1620935,-0.06749497,-0.5353408,0.1712577,0.8070176,36.55692,-6.949663,-34.70398,992.0829
1.778285980,-0.1323101,-0.1619731,-0.1283514,-0.5383007,0.1707982,0.8041139,36.55692,-6.949663,-34.70398,992.0829
1.783205509,-0.2558105,0.1342379,-0.1283091,-0.5426823,0.1663807,0.8035227,36.55692,-6.949663,-34.70398,992.0812
1.788124085,0.1150426,0.1341536,-0.1282285,-0.5377796,0.1659194,0.8044387,36.5577,-6.951789,-34.64013,992.0812
1.795503140,-0.1320776,-0.04365329,-0.06720879,-0.5377311,0.1672728,0.8103082,36.5577,-6.951789,-34.64013,992.0812
1.800422669,-0.07023199,-0.1620546,-0.128142,-0.5407276,0.1683299,0.8045402,36.5577,-6.951789,-34.64013,992.0812
1.805341244,-0.07018789,0.01572764,0.1156296,-0.5381861,0.1628635,0.8111416,36.5577,-6.951789,-34.64013,992.0812
1.810260296,-0.1319064,0.1342211,-0.1281724,-0.544467,0.1549438,0.8143379,36.5577,-6.951789,-34.64013,992.0812
1.815179825,-0.07002211,0.01570787,0.1156375,-0.5436433,0.1624815,0.80292,36.5577,-6.951789,-34.64013,992.0812
1.820100308,-0.193581,-0.1619639,-0.06720826,-0.537398,0.1767377,0.7999271,36.5577,-6.951789,-34.64013,992.0812
1.825018406,-0.1316968,-0.1618994,-0.06716606,-0.5271739,0.2000634,0.8093307,36.5577,-6.951789,-34.64013,992.0795
1.829937458,-0.6259869,0.07517163,-0.3717522,-0.5358025,0.1663791,0.8068649,36.5577,-6.951789,-34.64013,992.0795
1.834856987,-0.06941926,-0.1617519,-0.06689034,-0.5390832,0.1525735,0.8132467,36.5577,-6.951789,-34.64013,992.0795
1.839775562,-0.2547801,-0.1616875,-0.1886077,-0.5498596,0.1472052,0.8083077,36.5577,-6.951789,-34.64013,992.0795
1.844694615,0.1779126,0.07530906,0.1161199,-0.5440874,0.1561226,0.8036909,36.5577,-6.951789,-34.64013,992.0795
1.849614144,0.1778203,-0.280062,0.2988201,-0.5412907,0.1757002,0.8013824,36.5577,-6.951789,-34.64013,992.0795
1.854533196,-0.00765704,-0.04295396,0.1767772,-0.5387437,0.1784201,0.8135871,36.5577,-6.951789,-34.64013,992.0795
1.859452725,0.05416863,0.01626886,-0.006106988,-0.5411918,0.1697243,0.8079875,36.5577,-6.951789,-34.64013,992.0795
1.866831303,0.05403998,0.01627214,0.0547785,-0.5411844,0.1600666,0.8028224,36.5577,-6.951789,-34.64013,992.0795
1.871750355,0.1158269,0.01629915,-0.006173899,-0.5382656,0.171213,0.8080112,36.5577,-6.951789,-34.64013,992.0795
1.876669884,-0.00788762,-0.1613729,-0.06718376,-0.538744,0.1726346,0.8100029,36.5577,-6.951789,-34.64013,992.0795
1.881588936,0.1156814,-0.1020385,-0.1890158,-0.5354102,0.1786234,0.8043411,36.5577,-6.951789,-34.64013,992.0795
1.886507511,-0.06979565,0.0164359,0.1766492,-0.5397477,0.1721928,0.8070837,36.5549,-6.585144,-34.62889,992.0795
1.891427040,-0.007950351,-0.161255,0.05472136,-0.5411651,0.1658158,0.8083475,36.5549,-6.585144,-34.62889,992.0795
1.896346092,-0.007945399,-0.1611537,-0.006192734,-0.5382376,0.1653731,0.8073382,36.5549,-6.585144,-34.62889,992.0795
1.901265621,0.177464,0.01657219,-0.06712598,-0.5378082,0.1693494,0.8035779,36.5549,-6.585144,-34.62889,992.0795
1.906184674,-0.06983397,-0.1610815,-0.1280592,-0.5402023,0.1701933,0.809451,36.5549,-6.585144,-34.62889,992.0795
1.911104202,-0.0698095,-0.0425887,0.1767069,-0.5392408,0.1673411,0.8059529,36.5549,-6.585144,-34.62889,992.0795
1.916023255,-0.1315865,-0.04256203,-0.3108438,-0.5396411,0.1623446,0.812108,36.5549,-6.585144,-34.62889,992.0795
1.920941830,-0.007939798,0.194341,0.05491691,-0.5362841,0.1658782,0.8073384,36.5549,-6.585144,-34.62889,992.0795
1.925861359,-0.06961978,-0.1611421,-0.1278716,-0.5407351,0.1688264,0.8040707,36.5549,-6.585144,-34.62889,992.0795
1.930780411,-0.06961489,0.07585412,0.1768753,-0.5373018,0.1712491,0.8065479,36.5549,-6.585144,-34.62889,992.0795
1.935700417,-0.1932323,0.1942725,-0.06696521,-0.5348341,0.1697818,0.8079371,35.8723,-6.945978,-34.64161,992.0795
1.940618992,-0.06954679,0.0757402,-0.006100855,-0.5373179,0.170798,0.8045914,35.8723,-6.945978,-34.64161,992.0795
1.947997570,0.0541023,-0.2204591,-0.1278546,-0.5367965,0.1717047,0.8085004,35.8723,-6.945978,-34.64161,992.0795
1.952917099,-0.06953458,0.07575139,-0.06685624,-0.5397321,0.170234,0.8075063,35.8723,-6.945978,-34.64161,992.0795
1.957836151,-0.007708863,0.1348996,-0.005877074,-0.5401809,0.1638841,0.8077919,35.8723,-6.945978,-34.64161,992.0795
1.962755680,-0.06948613,0.1940665,-0.005854257,-0.5382383,0.1663389,0.8078547,35.8723,-6.945978,-34.64161,992.0795
1.967674256,-0.007660401,0.1939632,-0.24958,-0.5391963,0.1677379,0.8108206,35.8723,-6.945978,-34.64161,992.0795
1.972593308,-0.1930794,0.1346642,-0.1275872,-0.536791,0.1707298,0.8084691,35.8723,-6.945978,-34.64161,992.0795
1.977512837,-0.0075926,0.134561,-0.06660825,-0.5436348,0.1668048,0.8064573,35.8723,-6.945978,-34.64161,992.0795
1.982431889,-0.007568427,-0.0432226,0.05521217,-0.5382717,0.169778,0.8065087,35.8723,-6.945978,-34.64161,992.0795
1.987351418,-0.007602504,-0.04323265,-0.06667766,-0.5397015,0.1672823,0.8088681,36.24807,-6.595259,-34.24648,992.0778
1.992270470,-0.06932152,0.01600882,-0.06661662,-0.5397097,0.1687445,0.808915,36.24807,-6.595259,-34.24648,992.0778
1.997189999,-0.0693362,0.1344834,0.05524208,-0.5397135,0.1644122,0.8058628,36.24807,-6.595259,-34.24648,992.0778
2.002108574,0.1160923,-0.1024401,-0.1275658,-0.5387979,0.1688804,0.8021144,36.24807,-6.595259,-34.24648,992.0778
2.007028103,0.05421792,0.2529667,-0.005611322,-0.5401176,0.1676202,0.8166508,36.24807,-6.595259,-34.24648,992.0778
2.011947155,-0.007617597,0.07514587,0.05529105,-0.5377933,0.1683565,0.804517,36.24807,-6.595259,-34.24648,992.0778
2.016866684,0.1777333,0.07507998,0.05523719,-0.5387403,0.1678058,0.8074204,36.24807,-6.595259,-34.24648,992.0778
2.024245262,0.1159197,0.1934939,-0.127588,-0.5402779,0.1703384,0.8016877,36.24807,-6.595259,-34.24648,992.0778
2.029164314,-0.06957692,0.01569182,-0.1275461,-0.5347664,0.1677233,0.813697,36.24807,-6.595259,-34.24648,992.0778
2.034083843,0.3012562,0.01566334,-0.005572606,-0.5372588,0.1644162,0.806814,36.25087,-6.961904,-34.25771,992.0778
2.039002895,-0.06968369,-0.1028126,-0.1274626,-0.5407169,0.1697559,0.806528,36.25087,-6.961904,-34.25771,992.0778
2.043922424,0.1157645,0.1933985,0.05542897,-0.5382249,0.1672774,0.8098269,36.25087,-6.961904,-34.25771,992.0778
2.048841476,-0.007872351,0.07484819,0.1772876,-0.5382587,0.1683067,0.8069469,36.25087,-6.961904,-34.25771,992.0778
2.053760052,0.0539147,0.01556818,-0.1883892,-0.5415948,0.1652152,0.8141582,36.25087,-6.961904,-34.25771,992.0778
2.058679581,-0.007940092,0.01548399,0.05542028,-0.5362986,0.1692811,0.8079331,36.25087,-6.961904,-34.25771,992.0778
2.063598633,0.05384696,0.1339032,-0.06643138,-0.5412308,0.1683527,0.8030885,36.25087,-6.961904,-34.25771,992.0778
2.068519115,-0.06980921,0.015353,0.05546548,-0.5397375,0.1712088,0.8075376,36.25087,-6.961904,-34.25771,992.0801
2.073437214,0.05389583,-0.1031412,0.05543066,-0.5445955,0.1686912,0.8094389,36.25087,-6.961904,-34.25771,992.0801
2.078356743,-0.06972154,0.07458544,-0.005503021,-0.5392654,0.1717279,0.8060938,36.25087,-6.961904,-34.25771,992.0801
2.083275318,-0.2550627,0.2522377,-0.1882918,-0.5397353,0.1683116,0.8059881,36.24615,-6.949148,-34.6408,992.0801
2.088194370,-0.007715997,-0.1033003,-0.005438698,-0.5402149,0.168289,0.8069624,36.24615,-6.949148,-34.6408,992.0801
2.095573902,-0.007728142,0.1336175,-0.005376176,-0.5421222,0.1628734,0.8087466,36.24615,-6.949148,-34.6408,992.0801
2.100492477,-0.00776216,0.07431906,0.05556433,-0.538306,0.1683974,0.8020949,36.24615,-6.949148,-34.6408,992.0801
2.105411530,-0.007718473,-0.2218369,-0.06632572,-0.5406973,0.1687538,0.8079523,36.24615,-6.949148,-34.6408,992.0801
2.110331059,-0.1312971,0.1336262,-0.00540437,-0.5357825,0.1711626,0.8118735,36.24615,-6.949148,-34.6408,992.0783
2.115250111,-0.06945199,0.1335982,-0.06631898,-0.541647,0.1686906,0.8108713,36.24615,-6.949148,-34.6408,992.0783
2.120169640,-0.1312293,-0.1033249,0.05555867,-0.5446075,0.1658211,0.8064338,36.24615,-6.949148,-34.6408,992.0783
2.125088692,-0.1311468,0.07434607,-0.1272877,-0.5421088,0.163812,0.8107187,36.24615,-6.949148,-34.6408,992.0783
2.130008221,0.05430116,0.01510358,-0.1882406,-0.5373083,0.1674042,0.8035114,36.24615,-6.949148,-34.6408,992.0783
2.134926796,-0.007515012,0.01511274,-0.0662289,-0.5401886,0.1677562,0.8093727,36.24807,-6.595259,-34.24648,992.0783
2.139845848,-0.06933112,-0.04411111,-0.1271244,-0.5367597,0.1668124,0.8093144,36.24807,-6.595259,-34.24648,992.0783
2.144765377,0.05431531,0.0151124,-0.06614575,-0.5377898,0.1669033,0.8039848,36.24807,-6.595259,-34.24648,992.0783
2.149684429,-0.007520259,0.2519792,0.05577009,-0.5406396,0.1643036,0.8112079,36.24807,-6.595259,-34.24648,992.0765
2.154603958,-0.1311767,-0.1035214,-0.1270572,-0.5353026,0.1644339,0.8067985,36.24807,-6.595259,-34.24648,992.0765
2.159523010,0.05429073,-0.1626894,0.05583401,-0.5387829,0.1678874,0.8030535,36.24807,-6.595259,-34.24648,992.0765
2.164442539,0.05423719,-0.1626058,-0.005119085,-0.5401918,0.1658338,0.8078545,36.24807,-6.595259,-34.24648,992.0765
2.169361115,0.1777866,0.1335685,0.05580212,-0.543647,0.1673104,0.8055026,36.24807,-6.595259,-34.24648,992.0765
2.176740170,0.1778521,0.07426526,-0.005053599,-0.5406903,0.1658475,0.806888,36.24807,-6.595259,-34.24648,992.0765
2.181658745,0.1159389,0.01496695,-0.005050402,-0.5406724,0.1701526,0.8113957,36.25077,-6.243496,-33.7883,992.0765
2.186578274,0.1777063,0.1926566,-0.1269215,-0.5372488,0.1668079,0.8093182,36.25077,-6.243496,-33.7883,992.0765
2.191497326,0.05397236,-0.1628254,-0.004929225,-0.5426614,0.1668227,0.8059644,36.25077,-6.243496,-33.7883,992.0765
2.196416855,-0.06966453,0.07413463,0.1168716,-0.5387329,0.1673093,0.8078899,36.25077,-6.243496,-33.7883,992.0765
2.201335907,-0.007799834,0.01491089,-0.06595585,-0.5392321,0.1682888,0.8074399,36.25077,-6.243496,-33.7883,992.0765
2.206255436,0.0539871,-0.04433148,0.05594071,-0.5451283,0.1673243,0.8040586,36.25077,-6.243496,-33.7883,992.0765
2.211174488,0.1775755,-0.1035367,0.05586729,-0.540207,0.1702024,0.8089658,36.25077,-6.243496,-33.7883,992.0765
2.216093063,-0.007921049,0.01506889,-0.005104959,-0.5387177,0.1629407,0.8067786,36.25077,-6.243496,-33.7883,992.0765
2.221012592,-0.007916097,0.1334883,0.05581625,-0.5406838,0.1696924,0.8099245,36.25077,-6.243496,-33.7883,992.0765
2.225931644,-0.06969319,-0.1035463,0.05581945,-0.5382946,0.1688576,0.8035662,36.25077,-6.243496,-33.7883,992.0765
2.230851173,0.1157356,-0.04422954,-0.005095338,-0.5382714,0.1664024,0.8044583,36.24807,-6.595259,-34.24648,992.0748
2.235770226,0.05390025,0.1334974,-0.005092141,-0.5436679,0.1668683,0.8030609,36.24807,-6.595259,-34.24648,992.0748
2.243148804,0.05386889,0.01499848,-0.0051065,-0.5431366,0.1701668,0.8094742,36.24807,-6.595259,-34.24648,992.0748
2.248068333,0.1156171,0.0742221,-0.06607872,-0.5382274,0.1643892,0.8077921,36.24807,-6.595259,-34.24648,992.0748
2.252987385,-0.06984051,-0.04432787,0.05585622,-0.5391955,0.1667721,0.8103041,36.24807,-6.595259,-34.24648,992.0748
2.257906914,-0.06981605,0.07411021,-0.1269903,-0.5421746,0.1697245,0.80751,36.24807,-6.595259,-34.24648,992.0748
2.262825489,0.05381135,0.0148493,0.1167997,-0.5368248,0.1717591,0.8055892,36.24807,-6.595259,-34.24648,992.0748
2.267744541,-0.007985077,0.01487722,-0.005109639,-0.5407487,0.1712635,0.8041489,36.24807,-6.595259,-34.24648,992.0748
2.272664070,-0.007980006,0.1332967,-0.06606273,-0.5391866,0.1643441,0.8097407,36.24807,-6.595259,-34.24648,992.0748
2.277583122,0.05380704,0.1332687,-0.005103244,-0.5392017,0.1687127,0.810852,36.24807,-6.595259,-34.24648,992.0748
2.282502651,-0.1315924,0.01473753,0.0558754,-0.5382169,0.1691908,0.8118302,36.24537,-6.947022,-34.70465,992.0748
2.287421703,-0.1315291,0.01478409,-0.005077695,-0.541703,0.1678336,0.8045323,36.24537,-6.947022,-34.70465,992.0748
2.292341232,-0.06970321,0.01479347,-0.06604994,-0.5352839,0.1677733,0.8107897,36.24537,-6.947022,-34.70465,992.0748
2.297259808,0.05392413,-0.04446744,-0.0660659,-0.5402615,0.1674139,0.8015938,36.24537,-6.947022,-34.70465,992.0748
2.302179813,-0.007911203,0.01477494,-0.06598611,-0.5411587,0.1604996,0.8057493,36.24537,-6.947022,-34.70465,992.0748
2.307098389,-0.007867399,-0.04437443,-0.005026684,-0.5392028,0.1638929,0.8077842,36.24537,-6.947022,-34.70465,992.0748
2.312017441,-0.007823593,0.0740823,-0.1877967,-0.5372652,0.1697324,0.8094121,36.24537,-6.947022,-34.70465,992.0731
2.316936970,-0.06963959,0.07407292,0.05599329,-0.5407006,0.1668314,0.8064341,36.24537,-6.947022,-34.70465,992.0731
2.324315548,-0.1313755,0.01482602,-0.1267369,-0.5368156,0.1751166,0.80861,36.24537,-6.947022,-34.70465,992.0731
2.329235077,-0.007709394,0.1924972,-0.004802147,-0.5402269,0.1654189,0.8039573,36.55962,-6.5979,-34.2458,992.0731
2.334154129,-0.0694672,0.01473301,0.05613801,-0.537659,0.1594197,0.812969,36.55962,-6.5979,-34.2458,992.0731
2.339073658,-0.007622079,-0.0445279,-0.1266321,-0.5426624,0.162003,0.8028966,36.55962,-6.5979,-34.2458,992.0731
2.343992710,0.1159662,-0.04451852,-0.06565368,-0.5391988,0.1648496,0.8087859,36.55962,-6.5979,-34.2458,992.0731
2.348911285,-0.007670718,-0.1037051,-0.004675273,-0.5377349,0.1629404,0.8072561,36.55962,-6.5979,-34.2458,992.0731
2.353830814,0.05411616,0.0148076,0.05626483,-0.5362991,0.1668712,0.8063993,36.55962,-6.5979,-34.2458,992.0731
2.358749867,0.05404334,0.0147425,-0.1874999,-0.5386841,0.1652871,0.8117089,36.55962,-6.5979,-34.2458,992.0731
2.363669396,-0.007714405,0.07396623,0.1172461,-0.5382963,0.1650036,0.8010148,36.55962,-6.5979,-34.2458,992.0731
2.368588448,0.05409192,-0.163031,0.05627361,-0.5402891,0.1665026,0.7981661,36.55962,-6.5979,-34.2458,992.0731
2.373507977,0.115937,-0.04446246,0.117118,-0.5406873,0.1711456,0.8104566,36.55962,-6.5979,-34.2458,992.0731
2.378426552,0.115903,0.01477991,-0.004791596,-0.5387884,0.1688622,0.8030848,36.24615,-6.949148,-34.6408,992.0731
2.383345604,0.1158302,-0.04446235,0.05616772,-0.5387844,0.1698189,0.8040865,36.24615,-6.949148,-34.6408,992.0731
2.390725136,-0.0077848,-0.1037094,0.05609566,-0.5479723,0.1695353,0.8148345,36.24615,-6.949148,-34.6408,992.0731
2.395643711,-0.0695814,0.01478466,0.1169593,-0.5407373,0.1717237,0.8056202,36.24615,-6.949148,-34.6408,992.0748
2.400562763,0.05402642,0.310829,-0.004988491,-0.5431966,0.1683531,0.8021336,36.24615,-6.949148,-34.6408,992.0748
2.405482292,0.1158134,-0.04467154,0.1168506,-0.5397274,0.1702249,0.8079915,36.24615,-6.949148,-34.6408,992.0748
2.410401344,0.05395856,0.1329811,-0.005097053,-0.5367879,0.1634911,0.8043528,36.24615,-6.949148,-34.6408,992.0748
2.415320873,-0.007837979,0.1329161,0.1776984,-0.5407378,0.1693138,0.8040863,36.24615,-6.949148,-34.6408,992.0748
2.420239925,-0.06965397,0.3105689,-0.00512891,-0.5382843,0.1678737,0.80402,36.24615,-6.949148,-34.6408,992.0748
2.425159454,0.0539927,0.1326374,-0.06606285,-0.5372859,0.1659147,0.8049201,36.24615,-6.949148,-34.6408,992.0748
2.430078030,0.1157602,-0.04508924,-0.005122515,-0.5381734,0.1647678,0.8136302,36.56523,-7.331189,-34.26827,992.0748
2.434997082,-0.007876595,-0.04507952,0.116755,-0.5391528,0.1633148,0.8126206,36.56523,-7.331189,-34.26827,992.0714
2.439916611,-0.007852246,-0.1043214,-0.06609148,-0.5348381,0.1688251,0.8069354,36.56523,-7.331189,-34.26827,992.0714
2.447295189,-0.1315642,0.01416851,-0.0660675,-0.542688,0.1707312,0.8056044,36.56523,-7.331189,-34.26827,992.0714
2.452214241,-0.007956364,0.07339269,-0.005108011,-0.540704,0.1682846,0.8069662,36.56523,-7.331189,-34.26827,992.0714
2.457133770,-0.06975285,0.01409494,-0.1269408,-0.5407313,0.1731587,0.8071228,36.56523,-7.331189,-34.26827,992.0714
2.462052822,0.05387449,-0.04516552,-0.06594307,-0.5411618,0.1677383,0.8098657,36.56523,-7.331189,-34.26827,992.0714
2.466972351,-0.1315055,0.01413313,0.1778086,-0.5373234,0.1717728,0.8046227,36.56523,-7.331189,-34.26827,992.0714
2.471891403,-0.06967974,-0.1043418,-0.005037903,-0.5436152,0.1658028,0.8078817,36.56523,-7.331189,-34.26827,992.0714
2.476810932,0.05390874,0.01413404,-0.005034764,-0.5358398,0.1688616,0.8045171,36.56523,-7.331189,-34.26827,992.0714
2.481729508,-0.06968923,0.01410658,-0.005050722,-0.5387235,0.1672911,0.8088603,36.24335,-6.582503,-34.62956,992.0714
2.486648560,-0.007882786,-0.04513523,0.05592787,-0.5401731,0.1691731,0.8118457,36.24335,-6.582503,-34.62956,992.0714
2.491568089,-0.1932046,0.07335912,0.05589275,-0.5441753,0.16931,0.8026578,36.24335,-6.582503,-34.62956,992.0714
2.496487141,-0.06949969,-0.04511591,0.05581933,-0.5416717,0.1639162,0.8053775,36.24335,-6.582503,-34.62956,992.0714
2.501406670,-0.06947546,0.07330409,-0.005095454,-0.5397324,0.1644485,0.8039221,36.24335,-6.582503,-34.62956,992.0714
2.508785248,-0.06939056,0.07325357,-0.1268692,-0.5337993,0.1696818,0.8137519,36.24335,-6.582503,-34.62956,992.0714
2.513704300,-0.1311484,-0.2821533,0.05596449,-0.5381956,0.1628816,0.8101712,36.24335,-6.582503,-34.62956,992.0696
2.518623829,0.1159845,-0.04508121,-0.06588753,-0.5373292,0.1669621,0.8010697,36.24335,-6.582503,-34.62956,992.0696
2.523542881,0.1159699,0.01418015,-0.06588444,-0.538248,0.1697326,0.8089347,36.24335,-6.582503,-34.62956,992.0696
2.528461456,0.1776597,-0.1042762,-0.0658239,-0.538258,0.1673409,0.8064304,36.56242,-6.964545,-34.25704,992.0696
2.533380985,0.05402277,0.0142553,-0.126758,-0.5407289,0.1668858,0.8035229,36.56242,-6.964545,-34.25704,992.0696
2.538300038,-0.06965297,-0.1633784,-0.06581777,-0.545553,0.1633389,0.8083041,36.56242,-6.964545,-34.25704,992.0696
2.543219566,0.1775578,-0.1039869,-0.00485839,-0.5412619,0.1688945,0.8001929,36.56242,-6.964545,-34.25704,992.0696
2.548138619,0.1774657,0.01450732,-0.06579248,-0.5396649,0.1657656,0.8117323,36.56242,-6.964545,-34.25704,992.0696
2.553058148,-0.06979341,-0.103912,0.1779783,-0.5427007,0.1688268,0.8031157,36.56242,-6.964545,-34.25704,992.0696
2.557977200,-0.008006301,-0.1631541,-0.06584381,-0.5396799,0.1667586,0.8107932,36.56242,-6.964545,-34.25704,992.0679
2.562899113,-0.06976387,0.1922906,-0.004865279,-0.5377201,0.1653231,0.8102456,36.56242,-6.964545,-34.25704,992.0679
2.567815304,0.1774081,-0.04468793,0.05607494,-0.5416986,0.162039,0.8014333,36.56242,-6.964545,-34.25704,992.0679
2.575194359,0.1772992,0.07369003,-0.004953321,-0.5489396,0.1584156,0.8091451,36.56242,-6.964545,-34.25704,992.0679
2.580112934,0.1772267,-0.0448223,0.05602521,-0.5386972,0.1575972,0.805636,35.8723,-6.945978,-34.64161,992.0679
2.585032463,-0.1936158,0.01445748,-0.00498541,-0.5319363,0.1804862,0.8106843,35.8723,-6.945978,-34.64161,992.0679
2.589951515,-0.06993007,-0.163232,-0.005001425,-0.5349315,0.1829874,0.8059337,35.8723,-6.945978,-34.64161,992.0679
2.594871044,-0.1316293,-0.04475653,-0.3096457,-0.5401931,0.1643896,0.8068371,35.8723,-6.945978,-34.64161,992.0662
2.599790096,-0.1315078,0.1329148,-0.004784591,-0.5450771,0.1590291,0.8042777,35.8723,-6.945978,-34.64161,992.0662
2.604709625,-0.06960434,0.07363544,0.117131,-0.5362277,0.1599839,0.8095766,35.8723,-6.945978,-34.64161,992.0662
2.609628678,-0.007739756,0.07358911,0.05612025,-0.5411649,0.1624402,0.8062971,35.8723,-6.945978,-34.64161,992.0662
2.614552975,-0.1313379,-0.1041562,-0.126669,-0.539714,0.1620023,0.804329,35.8723,-6.945978,-34.64161,992.0662
2.619466782,-0.1312748,0.01437532,0.05616461,-0.5363526,0.1689025,0.8020951,35.8723,-6.945978,-34.64161,992.0662
2.624385834,-0.007589357,-0.1633328,-0.1875809,-0.5324203,0.177097,0.809123,35.8723,-6.945978,-34.64161,992.0662
2.629305363,-0.06938607,-0.04478275,-0.1265068,-0.5450324,0.1560502,0.8070951,36.56051,-7.318433,-34.65136,992.0662
2.634224415,0.239626,0.01447839,0.05638406,-0.5323366,0.1663285,0.8112047,36.56051,-7.318433,-34.65136,992.0662
2.639143944,-0.1312945,-0.163267,-0.00455023,-0.5372702,0.163956,0.8053427,36.56051,-7.318433,-34.65136,992.0645
2.644062519,-0.007667298,0.1921221,-0.1264217,-0.5412335,0.1688401,0.8031041,36.56051,-7.318433,-34.65136,992.0645
2.651442051,-0.1313213,0.01431644,-0.06542281,-0.5372851,0.1649489,0.8044035,36.56051,-7.318433,-34.65136,992.0645
2.656361103,-0.06937906,0.1920438,-0.00438714,-0.5391662,0.1623763,0.8106485,36.56051,-7.318433,-34.65136,992.0645
2.661279678,0.05424804,0.01424264,-0.1262587,-0.5357831,0.1687527,0.8103396,36.56051,-7.318433,-34.65136,992.0645
2.666199207,-0.06935011,0.07348536,-0.06524222,-0.5368323,0.1722556,0.8051197,36.56051,-7.318433,-34.65136,992.0645
2.671118260,-0.06932594,-0.104204,-0.004340663,-0.5386214,0.1666133,0.8190339,36.56051,-7.318433,-34.65136,992.0645
2.676037789,-0.007461479,-0.1633716,-0.06525591,-0.5358169,0.169782,0.8074597,36.24615,-6.949148,-34.6408,992.0689
2.680956841,-0.007495616,-0.1040732,-0.004277793,-0.5362603,0.1624572,0.807714,36.24615,-6.949148,-34.6408,992.0689
2.685876370,-0.007471502,-0.1632408,-0.1261685,-0.5406612,0.1648273,0.8092827,36.24615,-6.949148,-34.6408,992.0689
2.690795422,0.05431519,0.1328966,0.05668385,-0.5353478,0.1650029,0.8024473,36.24615,-6.949148,-34.6408,992.0689
2.695713997,-0.007481584,0.01438425,0.05662909,-0.5372794,0.1697596,0.8079565,36.24615,-6.949148,-34.6408,992.0689
2.700633526,0.05426638,0.07357103,-0.004267067,-0.536316,0.1673858,0.8049593,36.24615,-6.949148,-34.6408,992.0689
2.705552578,-0.007569194,-0.104137,-0.06522068,-0.5367358,0.1633914,0.8096901,36.24615,-6.949148,-34.6408,992.0689
2.710472107,-0.007545021,0.1328233,0.05667542,-0.5396906,0.1653326,0.8088055,36.24615,-6.949148,-34.6408,992.0689
2.715391159,-0.007540305,0.1920474,-0.0042782,-0.5377507,0.1682748,0.8088838,36.24615,-6.949148,-34.6408,992.0689
2.722769737,-0.007591479,-0.1041683,0.1784799,-0.5392438,0.1712042,0.8080189,36.24615,-6.949148,-34.6408,992.0689
2.727689266,0.05423419,-0.1633545,-0.06532343,-0.5436656,0.1731322,0.807146,35.8695,-6.579333,-34.63037,992.0689
2.732608318,-0.007620723,0.3105936,-0.1262387,-0.5416657,0.1653512,0.8068801,35.8695,-6.579333,-34.63037,992.0689
2.737527847,-0.00765474,-0.1634099,-0.004323368,-0.5358092,0.1659099,0.8058788,35.8695,-6.579333,-34.63037,992.0689
2.742446900,-0.007630509,0.07360628,-0.004320636,-0.541188,0.1648954,0.805405,35.8695,-6.579333,-34.63037,992.0689
2.747365475,0.05413691,0.0143456,-0.004317904,-0.5402187,0.1639566,0.8039103,35.8695,-6.579333,-34.63037,992.0689
2.752285004,-0.06946125,0.132784,-0.06527147,-0.5373245,0.166953,0.8015549,35.8695,-6.579333,-34.63037,992.0689
2.757204056,0.1159286,-0.1634088,0.1785372,-0.5406821,0.1643852,0.806841,35.8695,-6.579333,-34.63037,992.0671
2.762123585,-0.2548948,-0.04491452,0.05660824,-0.5401212,0.1599122,0.8115484,35.8695,-6.579333,-34.63037,992.0671
2.767042637,0.05417558,0.07359838,-0.06532076,-0.539217,0.1639201,0.8063286,35.8695,-6.579333,-34.63037,992.0671
2.771962166,0.115943,-0.1041283,0.2393868,-0.5372764,0.1658966,0.8058904,35.8695,-6.579333,-34.63037,992.0671
2.776880741,0.05408815,-0.2225475,-0.06537268,-0.5411784,0.1615016,0.804325,35.8695,-6.579333,-34.63037,992.0671
2.781799793,0.1776571,0.07357136,-0.1262879,-0.541176,0.1677655,0.80841,35.8695,-6.579333,-34.63037,992.0671
2.789179325,-0.007778786,0.01439928,0.1175414,-0.5421624,0.1692189,0.8084648,35.8695,-6.579333,-34.63037,992.0671
2.794097901,-0.06953654,0.07358605,0.05654953,-0.5402129,0.1687673,0.8074633,35.8695,-6.579333,-34.63037,992.0671
2.799016953,-0.06951224,0.01434402,-0.06537942,-0.5392179,0.1682616,0.8088955,35.8695,-6.579333,-34.63037,992.0671
2.803936482,-0.1930909,0.01431633,-0.1872701,-0.5406761,0.1658203,0.8083436,35.8695,-6.579333,-34.63037,992.0671
2.808855534,0.1160377,-0.04492571,-0.004379292,-0.5392643,0.1640108,0.8014765,35.8695,-6.579333,-34.63037,992.0671
2.813775063,0.05420217,-0.1040934,-0.1262317,-0.541701,0.168312,0.8050332,35.8695,-6.579333,-34.63037,992.0671
2.818694115,-0.06939598,-0.1040652,-0.06523438,-0.5402175,0.1654008,0.8049277,35.8695,-6.579333,-34.63037,992.0671
2.823613644,-0.06935235,0.1329508,-0.06521255,-0.5422137,0.1683529,0.8026111,36.55682,-6.231256,-34.23457,992.0671
2.828532219,0.05433294,-0.04483179,-0.004272735,-0.5411283,0.1700847,0.814796,36.55682,-6.231256,-34.23457,992.0671
2.833454609,0.2396256,0.01446664,0.3004157,-0.53876,0.1688078,0.805996,36.55682,-6.231256,-34.23457,992.0671
2.838370800,0.1158721,0.1329608,-0.06528106,-0.5391995,0.1658154,0.8093024,36.55682,-6.231256,-34.23457,992.0654
2.843289852,0.1776202,-0.1040177,-0.004379496,-0.5377896,0.1635276,0.8019345,36.55682,-6.231256,-34.23457,992.0654
2.848210812,-0.06965852,0.01449512,0.1174975,-0.5397226,0.1702159,0.8084767,36.55682,-6.231256,-34.23457,992.0654
2.855588436,-0.007927357,-0.04469584,0.05652628,-0.5426818,0.1687905,0.8050566,36.55682,-6.231256,-34.23457,992.0654
2.860507012,0.1156611,0.07381694,0.05645248,-0.5353257,0.1668891,0.8059063,36.55682,-6.231256,-34.23457,992.0654
2.865426541,0.1156079,0.01451896,0.1173159,-0.5371986,0.1628542,0.8121043,36.55682,-6.231256,-34.23457,992.0654
2.870345593,-0.1316317,-0.104012,-0.004555549,-0.539241,0.1707168,0.8080033,36.55682,-6.231256,-34.23457,992.0654
2.875265122,-0.1933893,0.07380824,-0.004590952,-0.537704,0.1657743,0.812202,36.93358,-7.319477,-34.71441,992.0654
2.880183697,0.0538798,0.01452891,-0.004549794,-0.5397062,0.1672914,0.8083828,36.93358,-7.319477,-34.71441,992.0671
2.885102749,0.05390421,0.01451987,0.1173273,-0.5421913,0.1668635,0.8040197,36.93358,-7.319477,-34.71441,992.0671
2.890022278,-0.007892278,0.01449218,-0.06557695,-0.5387625,0.1659196,0.8039613,36.93358,-7.319477,-34.71441,992.0671
2.894941330,-0.06968882,-0.04476862,-0.004579442,-0.5357997,0.1658917,0.8068492,36.93358,-7.319477,-34.71441,992.0671
2.899860859,-0.1314659,0.07368834,0.1172786,-0.5343624,0.1678909,0.8049595,36.93358,-7.319477,-34.71441,992.0671
2.904779911,-0.007799775,-0.1040198,-0.06554908,-0.5446114,0.1648644,0.8054321,36.93358,-7.319477,-34.71441,992.0671
2.909698487,0.05398716,-0.04475867,0.05632811,-0.536763,0.1648899,0.8077961,36.93358,-7.319477,-34.71441,992.0671
2.917078018,-0.06962786,0.01442358,0.1171547,-0.5392268,0.1706896,0.8094589,36.93358,-7.319477,-34.71441,992.0671
2.921997071,0.05405767,0.1328992,0.056144,-0.5455965,0.167762,0.8065041,36.55972,-7.316308,-34.71521,992.0671
2.926916123,-0.06957922,-0.1040793,-0.004847578,-0.5387804,0.1707756,0.8050882,36.55972,-7.316308,-34.71521,992.0671
2.931835175,0.054048,-0.04476229,-0.004863651,-0.5397706,0.1712723,0.8041412,36.55972,-7.316308,-34.71521,992.0671
2.936754227,0.05401404,-0.04473426,0.1169946,-0.5386882,0.1643303,0.8107073,36.55972,-7.316308,-34.71521,992.0671
2.941673756,-0.007801897,-0.04470624,-0.004953234,-0.5397117,0.1682662,0.8084141,36.55972,-7.316308,-34.71521,992.0671
2.946592808,-0.007777607,-0.1039112,0.1169433,-0.5367467,0.165341,0.8097526,36.55972,-7.316308,-34.71521,992.0671
2.951512337,-0.00779211,-0.04461289,-0.1268596,-0.538233,0.1687397,0.8098738,36.55972,-7.316308,-34.71521,992.0671
2.956431389,-0.1313514,0.07382542,-0.1268373,-0.5367799,0.1654045,0.8063562,36.55972,-7.316308,-34.71521,992.0671
2.961350441,0.05409676,0.07376043,0.1778515,-0.5416319,0.1643219,0.80976,36.55972,-7.316308,-34.71521,992.0654
2.966269493,-0.1313416,-0.04475201,-0.0659705,-0.5407244,0.1702524,0.8060584,36.55972,-7.316308,-34.71521,992.0654
2.971189022,0.1158691,0.0144906,0.05590694,-0.5416337,0.160468,0.8072088,36.24537,-6.947022,-34.70465,992.0654
2.976108074,-0.06958871,0.01446291,-0.005046158,-0.5372863,0.172666,0.8090208,36.24537,-6.947022,-34.70465,992.0654
2.981027603,0.05407736,-0.04472341,-0.005042961,-0.5411691,0.1648591,0.8073458,36.24537,-6.947022,-34.70465,992.0654
2.988406181,0.1158473,0.07371037,-0.06593705,-0.5353085,0.1629988,0.8052959,36.24537,-6.947022,-34.70465,992.0654
2.993325233,-0.2549954,0.01446833,0.05594036,-0.5391946,0.1624307,0.8077372,36.24537,-6.947022,-34.70465,992.0654
2.998244762,0.1158765,-0.04479235,-0.005031945,-0.5397233,0.1711816,0.8089932,36.24537,-6.947022,-34.70465,992.0654
3.003163815,-0.06954243,0.07372043,0.1777635,-0.5382341,0.1639199,0.806806,36.24537,-6.947022,-34.70465,992.0671
3.008082390,-0.007755557,0.07369274,-0.005102169,-0.5397386,0.1663891,0.8044699,36.24537,-6.947022,-34.70465,992.0671
3.013001919,0.05403138,-0.1040527,0.1167753,-0.5387098,0.164854,0.808782,36.24537,-6.947022,-34.70465,992.0671
3.017920971,0.1157795,-0.04475438,-0.1269701,-0.5406452,0.1686541,0.8132895,36.24537,-6.947022,-34.70465,992.0671
3.022840500,-0.0696976,-0.1039965,-0.06599143,-0.5387112,0.1667856,0.809815,36.24807,-6.595259,-34.24648,992.0671
3.027759552,-0.06965386,0.1329264,0.1168232,-0.5348613,0.1621191,0.8004087,36.24807,-6.595259,-34.24648,992.0671
3.032679081,-0.193213,-0.1040707,0.05585093,-0.5372576,0.1658603,0.8078313,36.24807,-6.595259,-34.24648,992.0671
3.037598133,0.05409481,0.251337,-0.309807,-0.5421433,0.165807,0.8083552,36.24807,-6.595259,-34.24648,992.0671
3.042516708,0.054022,0.1327503,0.1778082,-0.5402202,0.1658882,0.8049433,36.24807,-6.595259,-34.24648,992.0715
3.047440529,-0.06961489,0.01423801,0.1777348,-0.5367978,0.1702605,0.8074831,36.24807,-6.595259,-34.24648,992.0715
3.052355289,0.05401239,0.07340625,-0.06608715,-0.5372217,0.1653094,0.8112121,36.24807,-6.595259,-34.24648,992.0715
3.059733868,-0.007820528,0.1326259,-0.0660632,-0.5397299,0.1673367,0.8059568,36.24807,-6.595259,-34.24648,992.0715
3.064653397,0.1775888,0.1917571,0.1167514,-0.5386888,0.1652961,0.8112237,36.24807,-6.595259,-34.24648,992.0715
3.069572449,0.05393256,-0.1636499,-0.005157889,-0.540246,0.1688308,0.8040668,36.56523,-7.331189,-34.26827,992.0715
3.074491978,0.05389872,0.01405888,-0.1270864,-0.5431789,0.1668727,0.803057,36.56523,-7.331189,-34.26827,992.0715
3.079411030,-0.007936614,0.1917492,0.1167229,-0.5338593,0.1678682,0.8064112,36.56523,-7.331189,-34.26827,992.0715
3.084330559,-0.007912206,0.01394824,-0.1880744,-0.5401719,0.1706172,0.8128631,36.56523,-7.331189,-34.26827,992.0698
3.089249611,0.0539137,0.1324428,0.2385654,-0.5396528,0.1652601,0.8126871,36.56523,-7.331189,-34.26827,992.0698
3.094168186,-0.007941094,0.07320102,0.1165413,-0.5382472,0.1687669,0.8084182,36.56523,-7.331189,-34.26827,992.0698
3.099087715,0.115628,0.07315513,0.05555003,-0.5455823,0.1677347,0.8079597,36.56523,-7.331189,-34.26827,992.0698
3.104006767,-0.008008718,0.07309061,0.1163949,-0.5397,0.1653508,0.807835,36.56523,-7.331189,-34.26827,992.0698
3.108926296,0.05377833,-0.1046544,0.1164174,-0.5372712,0.1682974,0.8079095,36.56523,-7.331189,-34.26827,992.0698
3.113845348,0.05372515,-0.1637845,-0.005453405,-0.5407154,0.1678244,0.805495,36.56523,-7.331189,-34.26827,992.0698
3.118764877,-0.008090668,0.01394293,-0.06638711,-0.5382918,0.1683702,0.8035505,36.5521,-6.2185,-34.61765,992.0698
3.123683929,0.1154785,0.01389694,0.1164469,-0.5411557,0.1657977,0.8093179,36.5521,-6.2185,-34.61765,992.0698
3.128602505,-0.06999847,0.01392542,-0.00550058,-0.5368171,0.167887,0.8040084,36.5521,-6.2185,-34.61765,992.0698
3.133522034,-0.008191839,-0.04526057,0.1163389,-0.5372299,0.1667717,0.811259,36.5521,-6.2185,-34.61765,992.0698
3.140901089,-0.008106469,0.07311796,-0.06652477,-0.5397595,0.165947,0.8020282,36.5521,-6.2185,-34.61765,992.0698
3.145819664,-0.008159649,-0.0453755,-0.1274201,-0.5401759,0.1696605,0.8118614,36.5521,-6.2185,-34.61765,992.0698
3.150739193,0.1154096,0.07313773,-0.005484942,-0.5382247,0.1639018,0.8077765,36.5521,-6.2185,-34.61765,992.0698
3.155658245,-0.00820758,-0.0453929,-0.005500667,-0.5373443,0.1713307,0.8021811,36.5521,-6.2185,-34.61765,992.0698
3.160577774,0.05357959,-0.0453086,-0.06643438,-0.5411577,0.1653194,0.808817,36.5521,-6.2185,-34.61765,992.0698
3.165496826,-0.1317808,-0.0453173,0.1164571,-0.5377657,0.1692678,0.8079447,36.5521,-6.2185,-34.61765,992.0679
3.170421124,0.0537258,0.1324103,-0.06637005,-0.5460679,0.1662771,0.8074315,36.92326,-6.573431,-35.07502,992.0679
3.175334930,-0.06987206,-0.04539065,-0.2491207,-0.5402115,0.1668358,0.8064302,36.92326,-6.573431,-35.07502,992.0679
3.180253983,-0.06990578,-0.04528769,-0.2489641,-0.5407323,0.168339,0.804055,36.92326,-6.573431,-35.07502,992.0679
3.185173512,0.05368282,-0.04525921,0.1167194,-0.538299,0.1746522,0.8066651,36.92326,-6.573431,-35.07502,992.0679
3.190092564,-0.06987619,-0.04523073,0.05572806,-0.5397361,0.1692773,0.8065046,36.92326,-6.573431,-35.07502,992.0679
3.197471142,-0.008067145,0.01397051,0.05580956,-0.5393043,0.1669807,0.7991444,36.92326,-6.573431,-35.07502,992.0679
3.202390671,-0.008023222,0.01392451,0.1167308,-0.5406408,0.1628595,0.8101906,36.92326,-6.573431,-35.07502,992.0679
3.207309723,-0.0698391,0.0139157,-0.1270145,-0.5347904,0.1619831,0.8076867,36.92326,-6.573431,-35.07502,992.0679
3.212229252,-0.3788026,-0.04532611,-0.06603587,-0.5401642,0.1667451,0.8112823,36.92326,-6.573431,-35.07502,992.0679
3.217148304,0.11575,-0.04533482,0.116817,-0.5391515,0.1647589,0.813638,36.92326,-6.573431,-35.07502,992.0679
3.222067833,-0.1933106,-0.1045022,-0.1879229,-0.5410975,0.1637573,0.8141074,35.8751,-7.312623,-34.65285,992.0679
3.226986408,-0.007823593,-0.5190305,0.177818,-0.5382137,0.1619521,0.8077139,35.8751,-7.312623,-34.65285,992.0679
3.231905460,-0.007838096,0.07349564,0.1168074,-0.5416386,0.1638527,0.808774,35.8751,-7.312623,-34.65285,992.0679
3.236824989,-0.06965409,0.01427225,-0.005159371,-0.5383018,0.1659784,0.8010461,35.8751,-7.312623,-34.65285,992.0679
3.241744041,0.2393388,0.01431904,0.1775979,-0.5387309,0.1677876,0.8083907,35.8751,-7.312623,-34.65285,992.0679
3.246663570,0.05384224,-0.04496018,-0.1271803,-0.5363297,0.1698229,0.8050376,35.8751,-7.312623,-34.65285,992.0662
3.251582623,0.05382786,0.073497,0.1165907,-0.5392988,0.1660059,0.7991131,35.8751,-7.312623,-34.65285,992.0662
3.256502152,-0.008007421,-0.04495938,-0.005356789,-0.5377507,0.1682748,0.8088838,35.8751,-7.312623,-34.65285,992.0662
3.261420727,0.2391452,0.1328238,-0.0662714,-0.5393137,0.1669988,0.798174,35.8751,-7.312623,-34.65285,992.0662
3.268799782,0.05359309,0.07354006,0.05562706,-0.5392286,0.1668356,0.8069077,36.23976,-6.213733,-34.68217,992.0662
3.273719311,-0.008261467,-0.104168,0.2993407,-0.5392159,0.1687399,0.8093963,36.23976,-6.213733,-34.68217,992.0662
3.278637886,-0.008256279,0.1920067,0.1164178,-0.5377804,0.1668851,0.8049552,36.23976,-6.213733,-34.68217,992.0662
3.283557415,-0.1936555,0.1919233,-0.0664285,-0.5337834,0.1643474,0.8121241,36.23976,-6.213733,-34.68217,992.0662
3.288476467,-0.06998914,0.01417811,0.1163672,-0.5392315,0.1706986,0.8089737,36.23976,-6.213733,-34.68217,992.0679
3.293395996,0.1155174,-0.04506381,-0.06651733,-0.5402142,0.1673232,0.8064459,36.23976,-6.213733,-34.68217,992.0679
3.298315048,-0.008119263,0.01419755,0.1162976,-0.5353252,0.169299,0.8074402,36.23976,-6.213733,-34.68217,992.0679
3.303234577,0.05364845,0.07342173,0.2380797,-0.539713,0.1668221,0.8073968,36.23976,-6.213733,-34.68217,992.0679
3.308153629,-0.008225562,0.01414263,0.05513784,-0.5387564,0.163979,0.8034135,36.23976,-6.213733,-34.68217,992.0679
3.313072205,0.05358106,0.2510659,0.0551032,-0.5382729,0.1683339,0.8054913,36.23976,-6.213733,-34.68217,992.0679
3.317991734,0.0535474,-0.1636299,0.05512602,-0.5387453,0.1711905,0.8089855,36.24246,-5.86197,-34.224,992.0679
3.322910786,0.05349433,-0.0450611,-0.06680206,-0.543208,0.1678929,0.8006623,36.24246,-5.86197,-34.224,992.0679
3.330289364,0.05352163,-0.1635964,-0.0667391,-0.5397088,0.1644031,0.8063481,36.24246,-5.86197,-34.224,992.0679
3.335208893,0.1770521,0.07338274,-0.005760054,-0.5412221,0.1693003,0.8045754,36.24246,-5.86197,-34.224,992.0679
3.340127945,-0.07026495,-0.1636326,-0.1276499,-0.5397313,0.1692683,0.8069898,36.24246,-5.86197,-34.224,992.0679
3.345047474,-0.008458148,0.1918311,-0.06665167,-0.5357936,0.1639511,0.8063015,36.24246,-5.86197,-34.224,992.0679
3.349966526,0.05336805,-0.04516564,0.05528361,-0.5412079,0.1692731,0.806031,36.24246,-5.86197,-34.224,992.0679
3.354886055,-0.008428139,-0.0451558,-0.1275434,-0.5397291,0.166371,0.8054403,36.24246,-5.86197,-34.224,992.0679
3.359804630,-0.008461685,0.07333867,0.05530986,-0.5416701,0.1711458,0.8099791,36.24246,-5.86197,-34.224,992.0679
3.364723682,-0.008456379,0.01404092,-0.1274789,-0.5397135,0.1644122,0.8058628,36.24246,-5.86197,-34.224,992.0679
3.369643211,-0.07021371,0.01406928,0.05533605,-0.5402279,0.1697603,0.8065242,36.56242,-6.964545,-34.25704,992.0679
3.374562264,0.05341392,0.07329346,-0.005635854,-0.5387297,0.1692318,0.8094081,36.56242,-6.964545,-34.25704,992.0679
3.379481793,0.1770028,0.1324805,-0.1884054,-0.5377139,0.1633825,0.8096977,36.56242,-6.964545,-34.25704,992.0679
3.384400845,-0.008512859,-0.04524599,-0.06648937,-0.53974,0.1683206,0.8055029,36.56242,-6.964545,-34.25704,992.0679
3.391779423,-0.07036453,-0.04524056,0.2381441,-0.5426851,0.1668681,0.8035384,36.56242,-6.964545,-34.25704,992.0679
3.396698952,0.05326322,0.1325056,0.05525966,-0.5368361,0.1679232,0.8020676,36.56242,-6.964545,-34.25704,992.0679
3.401618004,-0.07037319,0.1324224,0.05526324,-0.5396304,0.1637706,0.8140958,36.56242,-6.964545,-34.25704,992.0679
3.406537533,0.05327395,0.0731062,-0.06664574,-0.5377709,0.166867,0.8059256,36.56242,-6.964545,-34.25704,992.0679
3.411456108,0.05322107,0.07307885,0.1161884,-0.5431309,0.1658163,0.8073926,36.56242,-6.964545,-34.25704,992.0679
3.416375160,0.05318758,-0.04543314,-0.0666386,-0.5381972,0.1681888,0.8132545,36.24615,-6.949148,-34.6408,992.0679
3.421294689,-0.07040998,0.07302427,0.05518182,-0.534296,0.1643883,0.809702,36.24615,-6.949148,-34.6408,992.0679
3.426213741,-0.07038516,0.01372674,0.1160652,-0.5431123,0.1599945,0.8057491,36.24615,-6.949148,-34.6408,992.0679
3.431133270,0.05324259,-0.04547778,0.05509337,-0.5391983,0.1672595,0.8103198,36.24615,-6.949148,-34.6408,992.0679
3.436052322,0.1149912,-0.104645,0.1160342,-0.5377346,0.168726,0.8108404,36.24615,-6.949148,-34.6408,992.0679
3.440971851,-0.008664556,-0.04536488,0.1768984,-0.5416487,0.1648366,0.80832,36.24615,-6.949148,-34.6408,992.0679
3.445890427,0.05314236,-0.04539223,-0.00598584,-0.5426843,0.1659023,0.8030218,36.24615,-6.949148,-34.6408,992.0679
3.453269482,0.05309225,-0.2230858,0.05493781,-0.5397737,0.1659742,0.8005726,36.24615,-6.949148,-34.6408,992.0723
3.458189011,-0.07054405,-0.04528373,0.05494159,-0.5372446,0.164389,0.8082696,36.24615,-6.949148,-34.6408,992.0723
3.463107586,-0.07051917,0.1324252,0.1157868,-0.536256,0.1691995,0.8123,36.24615,-6.949148,-34.6408,992.0723
3.468026638,0.1149101,-0.163786,-0.006160208,-0.5392619,0.1702747,0.8055616,36.23976,-6.213733,-34.68217,992.0723
3.472946167,0.2384602,-0.04525424,-0.006137217,-0.5406714,0.1658112,0.8088288,36.23976,-6.213733,-34.68217,992.0723
3.477865219,0.05294486,0.07318441,0.1157601,-0.5377206,0.1720744,0.8143464,36.23976,-6.213733,-34.68217,992.0723
3.482784748,-0.07063314,-0.104542,0.1157256,-0.5358005,0.1668575,0.8073658,36.23976,-6.213733,-34.68217,992.0723
3.487703800,-0.1323708,-0.04524327,-0.06712022,-0.5397759,0.1688715,0.8021222,36.23976,-6.213733,-34.68217,992.074
3.492622376,0.1148406,0.07319537,0.05481536,-0.5411808,0.1677746,0.8079249,36.23976,-6.213733,-34.68217,992.074
3.497541905,-0.008873323,-0.04529809,-0.006137101,-0.5406938,0.1673007,0.8074202,36.23976,-6.213733,-34.68217,992.074
3.502460957,-0.1324901,-0.04534408,0.1766973,-0.5432048,0.1698154,0.8021805,36.23976,-6.213733,-34.68217,992.074
3.509839535,0.05305852,0.07309026,0.05484797,-0.5358567,0.1693762,0.8030772,36.23976,-6.213733,-34.68217,992.074
3.514759064,0.05304461,0.0731374,-0.006104488,-0.5353475,0.1707885,0.8060315,36.25087,-6.961904,-34.25771,992.074
3.519678116,0.05301124,-0.04539324,-0.06709525,-0.5407269,0.1673642,0.8040237,36.25087,-6.961904,-34.25771,992.074
3.524597645,-0.008804107,-0.04536477,0.1157201,-0.5421683,0.1644082,0.8049119,36.25087,-6.961904,-34.25771,992.074
3.529516697,-0.008818021,0.2507917,-0.1280821,-0.5456556,0.1741437,0.8042815,36.25087,-6.961904,-34.25771,992.0723
3.534436226,-0.008812479,0.01372075,-0.06706447,-0.5407214,0.1663893,0.8039925,36.25087,-6.961904,-34.25771,992.0723
3.539355278,0.114796,0.132141,-0.006142653,-0.5416266,0.1667228,0.8117791,36.25087,-6.961904,-34.25771,992.0723
3.544273853,-0.1942252,0.07276919,-0.06701849,-0.5402088,0.1663484,0.8064146,36.25087,-6.961904,-34.25771,992.0723
3.549193382,-0.008718207,0.01352761,-0.00605836,-0.5411422,0.1667363,0.81129,36.25087,-6.961904,-34.25771,992.0723
3.554112435,-0.2558992,0.07278942,0.05486346,-0.5392219,0.1673049,0.8078938,36.25087,-6.961904,-34.25771,992.0723
3.559031963,-0.008551948,0.01349201,0.05482899,-0.5377622,0.1678146,0.8074126,36.25087,-6.961904,-34.25771,992.0723
3.563951016,0.1150369,-0.1641969,0.05477542,-0.5372553,0.162963,0.8062818,36.24335,-6.582503,-34.62956,992.0723
3.568870545,-0.07042035,0.01351224,-0.00617698,-0.5426167,0.1638438,0.8087817,36.24335,-6.582503,-34.62956,992.074
3.573789597,0.05320739,0.01354094,-0.1280665,-0.5352411,0.164316,0.8131061,36.24335,-6.582503,-34.62956,992.074
3.578708649,-0.008666324,-0.04571918,0.05476795,-0.5362292,0.1619154,0.8106096,36.24335,-6.582503,-34.62956,992.074
3.583627701,0.2385062,-0.04567182,0.1157473,-0.5401722,0.1648317,0.8092788,36.24335,-6.582503,-34.62956,992.074
3.588546753,0.1147922,0.01353405,-0.006218893,-0.538718,0.1663163,0.808829,36.24335,-6.582503,-34.62956,992.074
3.595925808,0.05294085,-0.04576755,0.05470496,-0.5455769,0.1667599,0.8079284,36.24335,-6.582503,-34.62956,992.074
3.600844860,0.1147091,-0.04573884,-0.1281408,-0.5309488,0.1713157,0.8060123,36.24335,-6.582503,-34.62956,992.074
3.605764389,0.05285495,-0.1049431,0.05473194,-0.5368832,0.1646383,0.7951652,36.24335,-6.582503,-34.62956,992.074
3.610683441,-0.07074238,0.01353303,-0.1281139,-0.5492285,0.178257,0.7913333,36.24335,-6.582503,-34.62956,992.0801
3.615602970,-0.5032694,-0.4602653,-0.3108257,-0.4962963,0.2358942,0.8379015,36.55962,-6.5979,-34.2458,992.0801
3.620522022,-0.8119023,0.5467621,-0.6761384,-0.5469667,0.1178984,0.7859808,36.55962,-6.5979,-34.2458,992.0801
3.625440598,0.5479877,0.5464559,0.05541723,-0.5807711,0.08108432,0.8083836,36.55962,-6.5979,-34.2458,992.0801
3.630360127,0.3622584,-0.4607,0.6646581,-0.5466105,0.1808408,0.810816,36.55962,-6.5979,-34.2458,992.0801
3.635279179,0.4237546,-0.3419073,0.5423663,-0.5101418,0.2153283,0.8096803,36.55962,-6.5979,-34.2458,992.0801
3.640200615,-0.1326083,0.1912186,-0.06723099,-0.5368905,0.1742959,0.8003302,36.55962,-6.5979,-34.2458,992.0801
3.645117760,-0.2560892,-0.04575929,-0.1890247,-0.5386493,0.1473796,0.804337,36.55962,-6.5979,-34.2458,992.0801
3.650037289,0.1149,0.1911829,-0.1280454,-0.5431457,0.1542724,0.7987685,36.55962,-6.5979,-34.2458,992.0784
3.657415867,0.1147529,-0.1051065,0.2985012,-0.5386857,0.1672186,0.8127419,36.55962,-6.5979,-34.2458,992.0784
3.662334919,0.1146614,0.01336973,0.1155597,-0.5359168,0.1800994,0.8034215,36.25368,-7.328548,-34.26895,992.0784
3.667254448,0.1763908,0.1910418,-0.1891412,-0.5338922,0.1770928,0.8086494,36.25368,-7.328548,-34.26895,992.0784
3.672173500,-0.009104906,0.1908846,0.05470708,-0.5435458,0.1584371,0.8105581,36.25368,-7.328548,-34.26895,992.0784
3.677092076,-0.00907979,-0.1645218,0.1155907,-0.5357353,0.1619107,0.8110909,36.25368,-7.328548,-34.26895,992.0784
3.682011604,-0.00907413,0.01326203,0.2373732,-0.5353488,0.1693443,0.8050141,36.25368,-7.328548,-34.26895,992.0784
3.686930657,0.05273302,0.07244959,-0.006524438,-0.5373142,0.1751303,0.8076435,36.25368,-7.328548,-34.26895,992.0784
3.691850186,-0.2562686,0.1316372,-0.1283563,-0.5387856,0.1683748,0.8030691,36.25368,-7.328548,-34.26895,992.074
3.696769238,-0.07072263,0.1316289,-0.25015,-0.5406878,0.1687357,0.8089227,36.25368,-7.328548,-34.26895,992.074
3.701688767,-0.19432,0.01309883,0.05467374,-0.5396444,0.1604222,0.8105898,36.25368,-7.328548,-34.26895,992.074
3.706607819,-0.008832289,0.07226776,-0.006355156,-0.53736,0.1732895,0.8017584,36.25368,-7.328548,-34.26895,992.074
3.711526394,-0.008846143,-0.1646911,-0.006312893,-0.541696,0.1740884,0.8091027,36.92876,-6.588314,-34.62808,992.074
3.716445923,0.05296089,-0.1053919,-0.06722692,-0.5377635,0.1663705,0.8063952,36.92876,-6.588314,-34.62808,992.074
3.721364975,-0.008835001,0.07231759,0.1156076,-0.5392259,0.1663482,0.806892,36.92876,-6.588314,-34.62808,992.074
3.726284504,-0.008829459,-0.04611947,0.05461695,-0.5401933,0.1677653,0.8088875,36.92876,-6.588314,-34.62808,992.074
3.731203556,-0.1324074,0.07231974,-0.1891468,-0.5382456,0.1634597,0.8053347,36.92876,-6.588314,-34.62808,992.0767
3.738582134,0.05308288,0.01303724,-0.1889494,-0.5397351,0.1649359,0.8039377,36.92876,-6.588314,-34.62808,992.0767
3.743501663,0.1148316,0.07220627,0.1767539,-0.5382886,0.1702926,0.8050687,36.92876,-6.588314,-34.62808,992.0767
3.748420716,-0.008843491,-0.105501,-0.06708662,-0.538659,0.1633102,0.8131019,36.92876,-6.588314,-34.62808,992.0767
3.753340244,-0.008818492,-0.1646677,0.1156904,-0.538304,0.1688757,0.8025957,36.92876,-6.588314,-34.62808,992.0767
3.758259297,0.1765721,-0.04615405,0.1765931,-0.5372494,0.164398,0.8077844,36.92876,-6.588314,-34.62808,992.0767
3.763177872,0.1146791,0.1315555,-0.1281269,-0.5417005,0.1707219,0.8065671,36.55682,-6.231256,-34.23457,992.0767
3.768097401,0.0527862,0.07220254,0.176601,-0.5378013,0.1664431,0.8025136,36.55682,-6.231256,-34.23457,992.0767
3.773016453,0.05275307,-0.04629023,0.2374272,-0.5401736,0.1667632,0.8103119,36.55682,-6.231256,-34.23457,992.0784
3.777935982,-0.009081558,-0.04624254,0.05454315,-0.5392356,0.169742,0.807972,36.55682,-6.231256,-34.23457,992.0784
3.782855034,0.1145659,0.1315041,-0.1283217,-0.5377264,0.1672637,0.8107934,36.55682,-6.231256,-34.23457,992.0784
3.787774563,0.05269246,-0.1054547,-0.006366782,-0.5387471,0.1673365,0.8064343,36.55682,-6.231256,-34.23457,992.0784
3.792693615,-0.070963,-0.1054072,0.1155307,-0.5323541,0.1644332,0.8082308,36.55682,-6.231256,-34.23457,992.0784
3.797612190,-0.07095728,0.07235816,0.05452094,-0.5426595,0.1673011,0.8064653,36.55682,-6.231256,-34.23457,992.0784
3.802531719,-0.009130611,-0.1053864,0.0544867,-0.5401742,0.1643534,0.808778,36.55682,-6.231256,-34.23457,992.0784
3.807450772,0.0526766,0.0131272,0.05443331,-0.5357306,0.1619017,0.8115761,36.55682,-6.231256,-34.23457,992.0784
3.812370300,0.05262407,0.01317478,0.05437997,-0.5407094,0.1692594,0.8069975,35.88252,-6.973616,-33.81158,992.0801
3.817289353,0.1143925,-0.04608512,0.0543841,-0.5441428,0.1668367,0.8045204,35.88252,-6.973616,-33.81158,992.0801
3.822208882,-0.009282366,-0.04607483,0.05433079,-0.5353183,0.1663926,0.8063759,35.88252,-6.973616,-33.81158,992.0801
3.827127934,-0.1328795,0.1316718,-0.06759676,-0.5426527,0.1677704,0.8074513,35.88252,-6.973616,-33.81158,992.0801
3.832046509,0.05262773,0.07235613,-0.1284723,-0.5363078,0.1659236,0.8049123,35.88252,-6.973616,-33.81158,992.0801
3.839426041,-0.009165101,0.1316698,-0.006630093,-0.5407107,0.1678153,0.8059801,35.88252,-6.973616,-33.81158,992.0801
3.844345093,0.1144048,-0.2237925,-0.0675822,-0.546091,0.1687324,0.8065393,35.88252,-6.973616,-33.81158,992.0801
3.849263668,-0.07101323,0.131616,-0.006621722,-0.5386538,0.165711,0.815121,35.88252,-6.973616,-33.81158,992.0801
3.854183197,0.176179,-0.1645573,0.1152567,-0.5382133,0.164362,0.8092477,35.88252,-6.973616,-33.81158,992.0784
3.859102249,-0.00925843,0.01317071,0.05428548,-0.5397372,0.1644575,0.8034369,36.56512,-6.612782,-33.79886,992.0784
3.864021778,0.1143115,-0.1052477,0.05427051,-0.5367348,0.1682111,0.8127577,36.56512,-6.612782,-33.79886,992.0784
3.868940830,0.05243818,-0.1051816,-0.006643289,-0.5407256,0.1688083,0.8050411,36.56512,-6.612782,-33.79886,992.0784
3.873860359,0.2378096,-0.04590102,-0.006715693,-0.5381781,0.1647768,0.813145,36.56512,-6.612782,-33.79886,992.0784
3.878778935,-0.07130825,0.01334227,-0.006692353,-0.5392376,0.1692636,0.8074712,36.56512,-6.612782,-33.79886,992.0784
3.883697987,-0.07128284,0.191033,-0.128505,-0.5421369,0.1604907,0.805757,36.56512,-6.612782,-33.79886,992.0784
3.888620854,-0.1330395,0.1317172,-0.1893806,-0.5338135,0.169709,0.8122963,36.56512,-6.612782,-33.79886,992.0784
3.893536568,0.05239025,-0.1645121,-0.006526704,-0.5406774,0.1643761,0.8073263,36.56512,-6.612782,-33.79886,992.0767
3.900915146,0.1142006,0.01332328,-0.006482262,-0.5353401,0.170292,0.8065011,36.56512,-6.612782,-33.79886,992.0767
3.905834675,-0.07125613,-0.1051325,0.0544781,-0.5475162,0.1662276,0.8093839,36.56512,-6.612782,-33.79886,992.0767
3.910753727,-0.07126963,0.07263256,-0.006512433,-0.5382562,0.1711949,0.8089817,36.24537,-6.947022,-34.70465,992.0767
3.915673256,-0.07120543,-0.1050936,-0.006489209,-0.5382498,0.1658787,0.8063834,36.24537,-6.947022,-34.70465,992.0767
3.920592308,-0.1329233,-0.105102,0.1153891,-0.539158,0.160914,0.8106016,36.24537,-6.947022,-34.70465,992.0767
3.925511837,0.1761093,-0.04582168,-0.006538476,-0.5388148,0.169395,0.8006744,36.24537,-6.947022,-34.70465,992.0767
3.930430413,0.05243452,0.01344014,0.1153782,-0.5386951,0.1672367,0.8117715,36.24537,-6.947022,-34.70465,992.0767
3.935349941,-0.009419323,0.01346895,-0.006549405,-0.5446,0.1653247,0.8069033,36.24537,-6.947022,-34.70465,992.0767
3.940268994,-0.1329775,-0.1049312,0.05441101,-0.538674,0.1643031,0.8121629,36.24537,-6.947022,-34.70465,992.0767
3.945188523,-0.1328552,-0.1048466,-0.06745916,-0.5387244,0.1716326,0.8114272,36.24537,-6.947022,-34.70465,992.0767
3.950107575,-0.009207609,0.1321142,-0.1283731,-0.5392843,0.1717642,0.804153,36.24537,-6.947022,-34.70465,992.0767
3.955027104,-0.1328242,-0.04563069,0.1762976,-0.5392035,0.1648587,0.8083007,36.24537,-6.947022,-34.70465,992.0767
3.959946156,-0.07091984,0.07286401,0.05440825,-0.539264,0.1697964,0.8050608,36.61923,-6.950191,-34.70384,992.0767
3.967324734,0.1145126,-0.3417242,-0.06744076,-0.5392321,0.1682888,0.8074399,36.61923,-6.950191,-34.70384,992.0767
3.972247601,-0.07088612,0.1322802,-0.1283164,-0.5367799,0.1654045,0.8063562,36.61923,-6.950191,-34.70384,992.0767
3.977163315,-0.070861,-0.1047164,-0.006361492,-0.5412146,0.1688038,0.8050449,36.61923,-6.950191,-34.70384,992.075
3.982081890,-0.009034452,-0.04538036,0.1155168,-0.5392665,0.1669081,0.803026,36.61923,-6.950191,-34.70384,992.075
3.987001419,-0.008989939,0.07307705,0.1154634,-0.5430928,0.1623681,0.8092238,36.61923,-6.950191,-34.70384,992.075
3.991920471,-0.07080523,-0.1638451,-0.06742059,-0.5382431,0.1663479,0.8073695,36.61923,-6.950191,-34.70384,992.075
3.996840000,0.05286161,0.0139383,-0.006479385,-0.5391853,0.1657882,0.8107581,36.61923,-6.950191,-34.70384,992.075
4.001759052,-0.009011931,-0.04530351,0.05444267,-0.5382632,0.1649401,0.8044113,36.61923,-6.950191,-34.70384,992.075
4.006678581,0.1145967,0.01384631,0.1153456,-0.5392182,0.162476,0.8053112,36.61923,-6.950191,-34.70384,992.075
4.011597633,-0.009097713,-0.1046099,-0.006601143,-0.537806,0.1664521,0.8020284,36.24246,-5.86197,-34.224,992.075
4.016516209,-0.07089349,-0.1045627,0.1152582,-0.5377358,0.1672819,0.809823,36.24246,-5.86197,-34.224,992.0732
4.021435738,-0.07090717,0.07316485,-0.006650236,-0.5436701,0.1697656,0.8046104,36.24246,-5.86197,-34.224,992.0732
4.028814793,0.1145446,-0.04531436,0.115192,-0.5387384,0.1682841,0.8079212,36.24246,-5.86197,-34.224,992.0732
4.033733368,0.1763129,0.2508606,-0.006735458,-0.5392587,0.1721972,0.8070799,36.24246,-5.86197,-34.224,992.0732
4.038652897,0.176241,-0.2230683,-0.1285864,-0.5397105,0.1697103,0.8094315,36.24246,-5.86197,-34.224,992.0732
4.043571949,-0.009235319,-0.1045179,-0.006650439,-0.5436903,0.1683578,0.8016523,36.24246,-5.86197,-34.224,992.0732
4.048491478,-0.009229541,0.0732469,0.1152472,-0.5406953,0.1692322,0.8084531,36.24246,-5.86197,-34.224,992.0732
4.053410530,0.2379821,0.1324339,-0.006680378,-0.5411301,0.1662307,0.8122448,36.24246,-5.86197,-34.224,992.0732
4.058330059,-0.009373278,0.01386597,0.1151981,-0.5343456,0.1673763,0.8063994,36.24807,-6.595259,-34.24648,992.0715
4.063248634,0.05243411,0.07312756,-0.1285845,-0.5440907,0.1667369,0.8098577,36.24807,-6.595259,-34.24648,992.0715
4.068167686,-0.132945,0.01388575,-0.0676049,-0.5397217,0.1658745,0.8059098,36.24807,-6.595259,-34.24648,992.0715
4.073087692,0.0524847,0.01382122,-0.06754328,-0.5387384,0.1682841,0.8079212,36.24807,-6.595259,-34.24648,992.0715
4.078006268,0.05243234,0.07300833,-0.06752,-0.5421209,0.1643175,0.8097639,36.24807,-6.595259,-34.24648,992.0715
4.085384846,-0.009360308,0.07299533,-0.006595824,-0.5382249,0.1672774,0.8098269,36.24807,-6.595259,-34.24648,992.0715
4.090304375,0.05238883,0.0137351,0.05432631,-0.5382144,0.1629179,0.8082303,36.24807,-6.595259,-34.24648,992.0715
4.095223427,0.2377992,0.1913883,0.1762239,-0.5406955,0.1726078,0.8105035,36.24807,-6.595259,-34.24648,992.074
4.100142956,0.1141245,0.01360615,-0.1285151,-0.5387622,0.1717051,0.8075455,36.24807,-6.595259,-34.24648,992.074
4.105062008,0.1140917,0.01352309,0.05431966,-0.539205,0.1667902,0.8093337,36.24807,-6.595259,-34.24648,992.074
4.109981537,-0.1331665,0.1319806,-0.1284876,-0.5397359,0.1659017,0.8044542,35.87702,-6.958735,-34.25852,992.074
4.114900112,0.05230217,0.01346895,-0.06752717,-0.5412039,0.1702298,0.8070327,35.87702,-6.958735,-34.25852,992.074
4.119819164,0.2376931,-0.04577252,0.1153458,-0.5392002,0.1667812,0.8098189,35.87702,-6.958735,-34.25852,992.074
4.124738693,-0.07140523,0.01352648,-0.1284369,-0.5406823,0.1677609,0.8088914,35.87702,-6.958735,-34.25852,992.074
4.129657745,-0.07139916,0.01349935,0.05443604,-0.545102,0.1667915,0.806469,35.87702,-6.958735,-34.25852,992.074
4.137036324,-0.009569251,0.1319713,-0.1283884,-0.5382622,0.1697599,0.8074791,35.87702,-6.958735,-34.25852,992.0723
4.141955853,-0.07136473,0.1319442,0.1763014,-0.5406938,0.1673007,0.8074202,35.87702,-6.958735,-34.25852,992.0723
4.146874905,0.05226361,-0.1050335,-0.1284377,-0.5392306,0.1663572,0.8064069,35.87702,-6.958735,-34.25852,992.0723
4.151794434,0.05221137,0.01346138,0.1762522,-0.539664,0.1614242,0.8091654,35.87702,-6.958735,-34.25852,992.0723
4.156713486,0.05223684,-0.04574291,0.05428629,-0.5358289,0.1669119,0.8044546,36.5522,-6.936907,-35.08707,992.0723
4.161633015,0.05222346,0.1319291,-0.06760295,-0.5392125,0.1672867,0.8088642,36.5522,-6.936907,-35.08707,992.0723
4.166554928,-0.1949764,0.07265042,-0.006623321,-0.5358105,0.1644657,0.8048615,36.5522,-6.936907,-35.08707,992.0723
4.171470642,0.2377176,-0.0458427,-0.006619135,-0.5396329,0.1608824,0.8120611,36.5522,-6.936907,-35.08707,992.0723
4.176390171,-0.1332018,-0.104991,0.1761582,-0.5397562,0.1678695,0.8035464,36.5522,-6.936907,-35.08707,992.0689
4.181309223,-0.009553981,0.01348523,0.0542115,-0.543202,0.169328,0.8021649,36.5522,-6.936907,-35.08707,992.0689
4.186228752,-0.00958682,0.01345822,0.2369889,-0.5377571,0.1735911,0.811482,36.5522,-6.936907,-35.08707,992.0689
4.191147804,0.05224014,0.1319344,0.05406684,-0.5382187,0.1653368,0.809279,36.5522,-6.936907,-35.08707,992.0689
4.196067333,-0.009594131,-0.1642205,-0.06776483,-0.5392632,0.1688306,0.8045443,36.5522,-6.936907,-35.08707,992.0689
4.200985909,0.05219398,0.1320105,0.05415203,-0.5392231,0.1658608,0.8068764,36.5522,-6.936907,-35.08707,992.0689
4.208364964,-0.009656684,-0.04575704,-0.128653,-0.5397751,0.1679058,0.8016056,36.92595,-6.221669,-34.61684,992.0689
4.213284493,-0.009650671,-0.1049613,-0.006736156,-0.5396719,0.168672,0.8127967,36.92595,-6.221669,-34.61684,992.0689
4.218203068,0.1757792,-0.1641657,-0.006770222,-0.5338285,0.1615408,0.8057225,36.92595,-6.221669,-34.61684,992.0689
4.223122120,-0.1333191,-0.04559655,0.05413288,-0.5392607,0.1717188,0.806579,36.92595,-6.221669,-34.61684,992.0689
4.228041649,-0.00965185,-0.04562368,-0.06775625,-0.5402453,0.1678651,0.8035503,36.92595,-6.221669,-34.61684,992.0689
4.232960701,-0.009684571,0.01363802,0.05416058,-0.5416597,0.1667863,0.8083826,36.92595,-6.221669,-34.61684,992.0689
4.237880230,-0.133262,-0.164051,-0.06770945,-0.5363019,0.1673586,0.8064149,36.92595,-6.221669,-34.61684,992.0689
4.242799282,0.1140082,0.13218,-0.1286041,-0.535321,0.16688,0.8063915,36.92595,-6.221669,-34.61684,992.0689
4.247718811,-0.07142905,0.01364944,-0.1285233,-0.5421786,0.1687678,0.8065083,36.92595,-6.221669,-34.61684,992.0689
4.252640247,-0.1331662,0.1321256,-0.006644801,-0.5348541,0.1649983,0.8029286,36.92595,-6.221669,-34.61684,992.0689
4.257556915,0.05234125,0.1320798,0.05425821,-0.5358284,0.1693218,0.8059884,36.24527,-6.228615,-34.23524,992.0671
4.262475967,0.05230835,-0.04562775,-0.006674739,-0.5397294,0.1697466,0.8074907,36.24527,-6.228615,-34.23524,992.0671
4.267395496,-0.009525976,0.0136526,-0.06756938,-0.5387794,0.1664342,0.8025213,36.24527,-6.228615,-34.23524,992.0671
4.274774075,-0.07131845,0.01365836,-0.1283854,-0.5387592,0.1678421,0.8054795,36.24527,-6.228615,-34.23524,992.0671
4.279693127,0.1758934,0.07282694,0.2372607,-0.5401162,0.1656886,0.8156179,36.24527,-6.228615,-34.23524,992.0671
4.284612656,-0.009563296,-0.04562899,0.1152947,-0.5392008,0.1643713,0.808285,36.24527,-6.228615,-34.23524,992.0671
4.289531708,0.05218596,0.07284706,-0.06755084,-0.5386901,0.163852,0.8102064,36.24527,-6.228615,-34.23524,992.0671
4.294451237,-0.1332124,0.07278275,-0.2503007,-0.5373117,0.1688574,0.8040436,36.24527,-6.228615,-34.23524,992.0671
4.299370289,-0.009564593,0.1319515,0.1154028,-0.5411773,0.1663214,0.8073928,36.24527,-6.228615,-34.23524,992.0715
4.304288864,0.2994099,0.07270998,0.1763058,-0.5397115,0.1648905,0.8063638,36.24615,-6.949148,-34.6408,992.0715
4.309208393,0.05209358,0.01343132,-0.006558997,-0.5411746,0.165834,0.8073771,36.24615,-6.949148,-34.6408,992.0715
4.314127445,-0.133363,-0.04584745,0.05438227,-0.5411552,0.1682076,0.8108518,36.24615,-6.949148,-34.6408,992.0715
4.319046974,0.05210578,-0.1050331,0.0543864,-0.5362625,0.1653545,0.8092635,36.24615,-6.949148,-34.6408,992.0715
4.323966026,-0.07152993,0.01348037,0.1762265,-0.5426437,0.1653424,0.8068878,36.24615,-6.949148,-34.6408,992.0715
4.328885555,0.05213738,-0.1642271,-0.006695637,-0.539702,0.1648724,0.8073342,36.24615,-6.949148,-34.6408,992.0715
4.336264134,-0.00979087,-0.04575523,-0.00665105,-0.5406821,0.1643852,0.806841,36.24615,-6.949148,-34.6408,992.0715
4.341183186,0.1137988,-0.04578235,-0.006646864,-0.5382935,0.1736774,0.8066338,36.24615,-6.949148,-34.6408,992.0698
4.346102715,-0.009836857,0.01344228,-0.06759897,-0.5391669,0.163342,0.811165,36.24615,-6.949148,-34.6408,992.0698
4.351021767,0.05195137,0.01337809,0.05427949,-0.5367881,0.1668668,0.8064032,36.24615,-6.949148,-34.6408,992.0698
4.355940342,-0.009843932,0.07260273,-0.06760976,-0.5382625,0.1639743,0.8038948,36.56512,-6.612782,-33.79886,992.0698
4.360859871,0.05196369,-0.04587163,0.05428786,-0.5401816,0.1648498,0.8083084,36.56512,-6.612782,-33.79886,992.0698
4.365778923,-0.009831609,0.01344613,-0.06765879,-0.5372232,0.1672409,0.8122451,36.56512,-6.612782,-33.79886,992.0698
4.370698452,0.1137581,0.01334464,0.05427713,-0.5358838,0.1708747,0.8011833,36.56512,-6.612782,-33.79886,992.0698
4.375618458,-0.07173722,0.191054,-0.128511,-0.5387471,0.1673365,0.8064343,36.56512,-6.612782,-33.79886,992.0698
4.380537033,-0.07169218,-0.04597945,0.1152609,-0.5362864,0.1687755,0.8088879,36.56512,-6.612782,-33.79886,992.0698
4.385455608,-0.07164714,-0.04600634,0.1761448,-0.5387498,0.1678239,0.8064499,36.56512,-6.612782,-33.79886,992.0698
4.390374661,-0.1334424,-0.04597741,-0.128575,-0.5372784,0.1654182,0.8053896,36.56512,-6.612782,-33.79886,992.0698
4.395294190,0.1756099,-0.1051258,-0.00661992,-0.5377649,0.168302,0.8074282,36.56512,-6.612782,-33.79886,992.0698
4.402672768,-0.07168375,-0.04584948,0.1762169,-0.5387391,0.1692499,0.8084376,36.61642,-6.583547,-34.6926,992.0698
4.407591820,-0.009856608,-0.04580213,0.05423188,-0.5386958,0.1682025,0.812288,36.61642,-6.583547,-34.6926,992.0698
4.412511349,0.1137526,0.01344115,0.1151733,-0.535324,0.1615819,0.8028229,36.61642,-6.583547,-34.6926,992.0698
4.417430401,0.05195733,0.01343279,-0.1895274,-0.5382689,0.1692906,0.806493,36.61642,-6.583547,-34.6926,992.0698
4.422349930,0.1755276,-0.04579015,0.05428283,-0.5362896,0.1668531,0.8073697,36.61642,-6.583547,-34.6926,992.0698
4.427268982,-0.009948227,-0.1049944,-0.06762557,-0.5348257,0.1649439,0.8058398,36.61642,-6.583547,-34.6926,992.0698
4.432188511,-0.07178226,-0.04573274,-0.006684244,-0.5406975,0.1721295,0.8100027,36.61642,-6.583547,-34.6926,992.0698
4.437107563,-0.1953595,0.1319579,-0.006641749,-0.5396662,0.1643215,0.810715,36.61642,-6.583547,-34.6926,992.0698
4.442026138,0.1754943,-0.1050199,0.1152367,-0.5387332,0.1615237,0.8043056,36.61642,-6.583547,-34.6926,992.0698
4.446945667,0.05178116,-0.1050097,-0.006652532,-0.5436268,0.1687182,0.8084607,36.61642,-6.583547,-34.6926,992.0698
4.451864719,0.05178747,0.01350365,-0.1285035,-0.5382669,0.1697689,0.8069938,36.5521,-6.2185,-34.61765,992.0698
4.459243298,-0.07186428,0.01352806,-0.1894344,-0.5406908,0.1634376,0.8053541,36.5521,-6.2185,-34.61765,992.0698
4.464162827,-0.1335818,-0.04573206,-0.06746027,-0.5401878,0.1667905,0.8088562,36.5521,-6.2185,-34.61765,992.0698
4.469081879,-0.195377,-0.04575918,-0.006499906,-0.5396933,0.16582,0.8088211,36.5521,-6.2185,-34.61765,992.0698
4.474001408,-0.07163186,-0.04576766,0.1762964,-0.5391908,0.166763,0.8107893,36.5521,-6.2185,-34.61765,992.0698
4.478920460,-0.009843696,0.1319602,-0.006568298,-0.5392144,0.1668084,0.8083633,36.5521,-6.2185,-34.61765,992.0698
4.483839989,0.1755863,-0.1050735,-0.06753962,-0.5372623,0.1658694,0.8073461,36.5521,-6.2185,-34.61765,992.0698
4.488758564,-0.1334731,-0.0457559,0.1153142,-0.5362774,0.1663475,0.8083244,36.5521,-6.2185,-34.61765,992.0698
4.493677616,-0.07166541,0.01343143,-0.06755052,-0.5391517,0.1681346,0.8156884,36.5521,-6.2185,-34.61765,992.0698
4.498597145,0.1137452,0.1318891,-0.006609253,-0.5402405,0.167856,0.8040355,36.5521,-6.2185,-34.61765,992.0698
4.503516197,-0.009890331,0.07259176,0.1761872,-0.5411918,0.1697243,0.8079875,36.93358,-7.319477,-34.71441,992.0715
4.508435726,-0.07166618,-0.1051157,-0.006696655,-0.5352911,0.1648941,0.8082697,36.93358,-7.319477,-34.71441,992.0715
4.513354778,-0.009839156,0.07263075,-0.006711566,-0.5426321,0.1624269,0.8063087,36.93358,-7.319477,-34.71441,992.0715
4.518274307,-0.009833025,0.07260374,-0.006669071,-0.5362938,0.169272,0.8084183,36.93358,-7.319477,-34.71441,992.0715
4.523192883,0.1137567,0.1910615,0.1151903,-0.5367818,0.1649262,0.8058553,36.93358,-7.319477,-34.71441,992.0715
4.528111935,0.1755255,-0.1644009,0.1151562,-0.5396724,0.1662621,0.8112628,36.93358,-7.319477,-34.71441,992.0715
4.533031464,-0.009969746,-0.2235493,0.2979336,-0.5407033,0.1673188,0.8064498,36.93358,-7.319477,-34.71441,992.0715
4.540410042,0.1752888,0.01350037,-0.1286774,-0.5363256,0.1707796,0.8060392,36.93358,-7.319477,-34.71441,992.0715
4.545329094,-0.01018694,-0.10503,-0.006798881,-0.5436552,0.1687726,0.8055495,36.93358,-7.319477,-34.71441,992.0715
4.550248623,-0.01018058,-0.1050012,0.05416166,-0.5368171,0.167887,0.8040084,36.56242,-6.964545,-34.25704,992.0715
4.555167675,0.1134287,0.07268941,-0.06774665,-0.5367975,0.1668849,0.8054327,36.56242,-6.964545,-34.25704,992.0715
4.560087204,-0.2573931,-0.1642512,-0.006766966,-0.5382391,0.1673046,0.8083712,36.56242,-6.964545,-34.25704,992.0715
4.565006256,-0.0718658,0.1911943,-0.006762723,-0.5353033,0.1653997,0.807315,36.56242,-6.964545,-34.25704,992.0715
4.569925785,0.05174343,-0.1050166,-0.1286519,-0.5426559,0.1658479,0.8059331,36.56242,-6.964545,-34.25704,992.0715
4.574844360,-0.1337323,0.1319443,0.1151392,-0.5412201,0.1697787,0.8050763,36.56242,-6.964545,-34.25704,992.0715
4.579763889,-0.07184682,0.07270285,0.1150669,-0.5397304,0.1649268,0.8044229,36.56242,-6.964545,-34.25704,992.0715
4.584682942,-0.07176281,0.0726572,0.05407658,-0.5427222,0.1659749,0.7991402,36.56242,-6.964545,-34.25704,992.0698
4.589601994,-0.009935669,-0.1642647,0.05404263,-0.5396754,0.1701252,0.8133287,36.56242,-6.964545,-34.25704,992.0698
4.594521523,0.05185268,-0.1641057,-0.06782731,-0.5431654,0.1678113,0.8050292,36.56242,-6.964545,-34.25704,992.0698
4.599440575,0.05182013,-0.1047324,0.1149884,-0.5368572,0.1708568,0.8016763,36.25087,-6.961904,-34.25771,992.0698
4.606819630,0.1136115,-0.1045779,0.0540578,-0.538262,0.1663842,0.8054287,36.25087,-6.961904,-34.25771,992.0698
4.611738682,-0.01004332,-0.1045494,-0.1288259,-0.5407017,0.1653873,0.8054167,36.25087,-6.961904,-34.25771,992.0698
4.616658211,0.05170617,-0.04525062,-0.1288024,-0.5382607,0.1678283,0.8064461,36.25087,-6.961904,-34.25771,992.0698
4.621577263,-0.01014721,-0.04522214,0.1149697,-0.5376911,0.1643029,0.8126403,36.25087,-6.961904,-34.25771,992.0698
4.626495838,0.175283,0.01400204,-0.06791396,-0.5421224,0.1662491,0.810797,36.25087,-6.961904,-34.25771,992.0698
4.631415367,-0.1337762,-0.04522112,0.0539647,-0.5416157,0.1647731,0.8117165,36.25087,-6.961904,-34.25771,992.0698
4.636334419,-0.0719102,0.01396587,0.1758242,-0.5406951,0.1658565,0.8064028,36.25087,-6.961904,-34.25771,992.0698
4.641253948,-0.1954874,0.07317152,0.1147958,-0.5406438,0.1667226,0.8122566,36.25087,-6.961904,-34.25771,992.0698
4.646173000,-0.01001844,0.01391106,0.0537865,-0.5362849,0.166844,0.8078549,36.25087,-6.961904,-34.25771,992.0698
4.651092529,0.2371743,0.1324057,-0.06812155,-0.537317,0.1664566,0.8020245,36.24807,-6.595259,-34.24648,992.0698
4.656011105,-0.01010287,-0.1637124,0.05377638,-0.5407411,0.1673914,0.8025681,36.24807,-6.595259,-34.24648,992.0698
4.660930157,-0.01007711,0.07330386,-0.00719453,-0.542201,0.1702572,0.8050997,36.24807,-6.595259,-34.24648,992.0698
4.665849686,-0.01003195,-0.1044414,0.0537663,-0.5382425,0.1687578,0.8089034,36.24807,-6.595259,-34.24648,992.0741
4.673228264,-0.07180455,-0.1636504,-0.06800552,-0.5357965,0.1678142,0.8083675,36.24807,-6.595259,-34.24648,992.0741
4.678147316,-0.1335415,0.07334737,-0.0680011,-0.5392089,0.1658335,0.808332,36.24807,-6.595259,-34.24648,992.0741
4.683066845,-0.07167555,0.01412409,0.05385847,-0.5422021,0.1654375,0.8020319,36.24807,-6.595259,-34.24648,992.0741
4.687985897,-0.07161111,-0.1043508,0.05380548,-0.5377493,0.1663433,0.8078508,36.24807,-6.595259,-34.24648,992.0741
4.692905426,-0.009764634,0.07339518,-0.007184589,-0.5318767,0.1673531,0.8088061,36.24807,-6.595259,-34.24648,992.0741
4.697824478,-0.009739107,0.251104,-0.0681555,-0.5377363,0.164872,0.8082891,36.24807,-6.595259,-34.24648,992.0741
4.702744007,0.2374147,-0.1043217,0.2365156,-0.5396649,0.1657656,0.8117323,36.25357,-6.610141,-33.79953,992.0741
4.707662583,-0.07170296,0.07342433,0.05363216,-0.5416848,0.1687631,0.8069896,36.25357,-6.610141,-33.79953,992.0681
4.712581635,-0.009875827,0.07334093,0.05359847,-0.5392677,0.165464,0.8020087,36.25357,-6.610141,-33.79953,992.0681
4.717501164,-0.009830844,0.1325278,-0.06829034,-0.5387133,0.1663073,0.8093142,36.25357,-6.610141,-33.79953,992.0681
4.722420216,0.05193799,-0.1636462,-0.06826659,-0.5421948,0.1683166,0.8045518,36.25357,-6.610141,-33.79953,992.0681
4.727339745,0.1755083,0.01413709,0.1754674,-0.5387356,0.1677967,0.8079056,36.25357,-6.610141,-33.79953,992.0681
4.732258797,-0.009948168,-0.0450863,0.1753955,-0.5402391,0.1659245,0.8030025,36.25357,-6.610141,-33.79953,992.0681
4.739637375,0.2371312,-0.1635656,-0.06849918,-0.537307,0.1688483,0.8045288,36.25357,-6.610141,-33.79953,992.0681
4.744556904,0.05161661,0.07343202,0.1752924,-0.54164,0.1657842,0.809807,36.25357,-6.610141,-33.79953,992.0664
4.749475956,-0.01021731,0.07336726,-0.007571694,-0.5372847,0.1673588,0.8059374,36.24065,-6.934266,-35.08774,992.0664
4.754395485,0.1133727,0.1917873,0.05338937,-0.5392246,0.1677923,0.8079094,36.24065,-6.934266,-35.08774,992.0664
4.759314060,-0.07204474,-0.04522813,-0.06853761,-0.5392104,0.1677651,0.809365,36.24065,-6.934266,-35.08774,992.0664
4.764233113,-0.1338204,-0.2228988,0.1752157,-0.537744,0.1687441,0.8098699,36.24065,-6.934266,-35.08774,992.0664
4.769152641,-0.0719931,0.01411754,-0.007648312,-0.5368084,0.1688346,0.8054953,36.24065,-6.934266,-35.08774,992.0664
4.774071694,0.05165511,0.01412726,-0.007643487,-0.5362277,0.1599839,0.8095766,36.24065,-6.934266,-35.08774,992.0664
4.778991223,0.1752062,0.01411844,-0.007657817,-0.5441662,0.1635064,0.800044,36.24065,-6.934266,-35.08774,992.0664
4.783910275,-0.07207098,-0.1043006,0.05326499,-0.5353096,0.1673402,0.8078628,36.24065,-6.934266,-35.08774,992.0664
4.788829804,0.05151898,-0.1042909,-0.1904788,-0.5421291,0.1657798,0.8098109,36.24065,-6.934266,-35.08774,992.0706
4.793748379,0.05148662,0.1326322,-0.007585965,-0.5367134,0.1619019,0.8110987,36.24065,-6.934266,-35.08774,992.0706
4.798667431,-0.01034719,0.07342761,-0.007657758,-0.5426494,0.1696928,0.8089695,36.25087,-6.961904,-34.25771,992.0706
4.806046963,0.05146403,-0.1043407,-0.007593144,-0.5412015,0.1639569,0.8034329,36.25087,-6.961904,-34.25771,992.0706
4.810965538,0.05141227,0.1918713,-0.007569223,-0.5372543,0.1677828,0.8093495,36.25087,-6.961904,-34.25771,992.0706
4.815884590,-0.01044087,0.01410759,-0.007583611,-0.5363406,0.1717726,0.8051001,36.25087,-6.961904,-34.25771,992.0706
4.820804119,-0.01049258,0.01409878,-0.007597998,-0.5405694,0.1651333,0.8190025,36.25087,-6.961904,-34.25771,992.0706
4.825723171,-0.01048597,0.2510407,-0.06856868,-0.5338169,0.1711622,0.8128284,36.25087,-6.961904,-34.25771,992.0706
4.830642700,0.1131041,-0.1044594,-0.007607619,-0.5372464,0.160535,0.8057183,36.25087,-6.961904,-34.25771,992.0706
4.835561753,0.05123157,-0.04510495,-0.06850168,-0.5362777,0.1697231,0.8103748,36.25087,-6.961904,-34.25771,992.0706
4.840481281,-0.07238416,-0.1043097,0.1143145,-0.5397711,0.1688625,0.8026074,36.25087,-6.961904,-34.25771,992.0706
4.845399857,-0.01057606,-0.04502979,0.05326726,-0.5406485,0.1667316,0.8117713,36.25087,-6.961904,-34.25771,992.0706
4.850318909,-0.0105306,0.0142501,-0.0686405,-0.5402027,0.1677834,0.8079171,36.24807,-6.595259,-34.24648,992.0706
4.857698441,0.0512614,0.07333946,0.05327932,-0.5412179,0.1668814,0.8035268,36.24807,-6.595259,-34.24648,992.0706
4.862617016,0.05120975,-0.04513535,0.114183,-0.5358696,0.1708475,0.8026389,36.24807,-6.595259,-34.24648,992.0706
4.867536068,0.05117756,-0.04512563,0.1141304,-0.5416436,0.1672374,0.8103392,36.24807,-6.595259,-34.24648,992.0706
4.872455597,-0.0724187,0.191779,0.1749958,-0.5397503,0.1693045,0.805049,36.24807,-6.595259,-34.24648,992.0706
4.877374649,-0.1342329,0.1916772,-0.06884356,-0.5347411,0.1623707,0.8130397,36.24807,-6.595259,-34.24648,992.0706
4.882294178,0.05125586,0.1916498,0.1139728,-0.5417423,0.1698377,0.8016837,36.24807,-6.595259,-34.24648,992.0706
4.887213230,-0.07235987,-0.2230832,0.05302153,-0.5382717,0.169778,0.8065087,36.24807,-6.595259,-34.24648,992.0706
4.892132759,0.1130512,-0.04529978,-0.007948915,-0.5372341,0.1691906,0.8123077,36.24807,-6.595259,-34.24648,992.0706
4.897051335,-0.01062275,0.07315762,-0.06888105,-0.5377087,0.1657833,0.8117168,36.23976,-6.213733,-34.68217,992.0706
4.901970387,0.0511854,0.07314892,-0.0688378,-0.539203,0.1672686,0.8098346,36.23976,-6.213733,-34.68217,992.0706
4.906889916,-0.07243026,-0.04536307,0.05307972,-0.5402027,0.1677834,0.8079171,36.23976,-6.213733,-34.68217,992.0706
4.911808968,-0.01058331,0.1915417,-0.1907022,-0.5426773,0.1721571,0.8075922,36.23976,-6.213733,-34.68217,992.0706
4.916728497,0.05122479,0.01375951,0.1140651,-0.5377771,0.1688076,0.8064735,36.23976,-6.213733,-34.68217,992.0706
4.924107075,0.1129974,0.3098559,-0.06877726,-0.542188,0.1687859,0.8055379,36.23976,-6.213733,-34.68217,992.0706
4.929026604,-0.01065713,0.01357044,0.1749954,-0.539142,0.1647408,0.8146083,36.23976,-6.213733,-34.68217,992.0706
4.933945656,0.05113158,0.1320466,0.05304943,-0.5362993,0.1702468,0.8084496,36.23976,-6.213733,-34.68217,992.0706
4.938864708,-0.1960676,0.01359056,-0.129757,-0.5406654,0.1672462,0.8103314,36.23976,-6.213733,-34.68217,992.0706
4.943784237,-0.1341624,0.2504769,0.05307847,-0.5435271,0.1617765,0.8145493,36.23976,-6.213733,-34.68217,992.0706
4.948702812,-0.1340781,-0.1050415,0.05308341,-0.5382167,0.1658152,0.8097799,36.25087,-6.961904,-34.25771,992.0746
4.953622341,0.174994,-0.1049755,-0.1297805,-0.5300311,0.1762622,0.8027647,36.25087,-6.961904,-34.25771,992.0746
4.958541394,-0.1340456,0.1319668,-0.007843841,-0.5358576,0.1828788,0.8112787,36.25087,-6.961904,-34.25771,992.0746
4.963460922,-0.07225699,-0.1642254,-0.06873778,-0.5372299,0.1667717,0.811259,36.25087,-6.961904,-34.25771,992.0746
4.968379975,-0.07221159,0.1912387,-0.06871375,-0.5411704,0.163415,0.8063284,36.25087,-6.961904,-34.25771,992.0746
4.973299504,0.1132382,-0.2234568,0.05316541,-0.5386971,0.1667584,0.8112707,36.25087,-6.961904,-34.25771,992.0746
4.978218556,-0.01041646,-0.04572901,0.1140883,-0.5411539,0.1696517,0.8118691,36.25087,-6.961904,-34.25771,992.0746
4.983137131,-0.01042932,0.1912131,-0.007876801,-0.5396974,0.1557022,0.8021848,36.25087,-6.961904,-34.25771,992.0746
4.990516663,-0.2576448,-0.1641977,-0.1297245,-0.5275782,0.184949,0.8088494,36.25087,-6.961904,-34.25771,992.0729
4.995435715,-0.1957203,0.01353009,-0.1906185,-0.5445896,0.1609651,0.8053069,36.25087,-6.961904,-34.25771,992.0729
5.000354290,-0.01019296,-0.1641031,0.05323069,-0.5416304,0.1623904,0.808727,36.25087,-6.961904,-34.25771,992.0729
5.005273819,-0.01022538,0.01364322,-0.007720745,-0.535757,0.1624344,0.8091658,36.25087,-6.961904,-34.25771,992.0729
5.010192871,0.05158248,0.1320449,-0.129571,-0.5353361,0.1712487,0.8075028,36.25087,-6.961904,-34.25771,992.0729
5.015112400,0.1133127,0.01357033,0.05322607,-0.5411744,0.1624583,0.8053267,36.25087,-6.961904,-34.25771,992.0729
5.020031452,-0.0103226,0.01358039,-0.1295996,-0.5366955,0.166207,0.8156064,36.25087,-6.961904,-34.25771,992.0729
5.024950981,0.05146598,0.01362763,-0.06858109,-0.5396142,0.1642217,0.8160521,36.25087,-6.961904,-34.25771,992.0729
5.029870033,-0.01032897,-0.1048284,-0.007639127,-0.5416903,0.169738,0.807021,36.25087,-6.961904,-34.25771,992.0729
5.034788609,-0.01030309,0.07293645,0.05332193,-0.5367575,0.163915,0.8077648,36.25087,-6.961904,-34.25771,992.0729
5.042168140,0.1132707,-0.04554242,0.05329086,-0.5392401,0.1663754,0.8054364,36.25087,-6.961904,-34.25771,992.0729
5.047086716,0.1132383,-0.1047283,0.1141754,-0.5426998,0.1644854,0.8005489,36.55972,-7.316308,-34.71521,992.0729
5.052005768,-0.01043568,0.01374776,-0.1905629,-0.541191,0.1687585,0.807471,36.55972,-7.316308,-34.71521,992.0729
5.056925297,0.0513335,-0.04551248,-0.007650899,-0.5387789,0.1688441,0.8040552,36.55972,-7.316308,-34.71521,992.0729
5.061844349,0.05130125,0.07305659,0.1142282,-0.5392348,0.1687762,0.8074555,36.55972,-7.316308,-34.71521,992.0729
5.066763878,-0.07229513,-0.1046884,0.1141947,-0.5372521,0.1648855,0.8078,36.55972,-7.316308,-34.71521,992.0729
5.071682930,0.1131353,0.1322908,-0.007770448,-0.5377303,0.166307,0.8097917,36.55972,-7.316308,-34.71521,992.0712
5.076602459,-0.2576669,0.0729933,-0.1905579,-0.5406903,0.1658475,0.806888,36.55972,-7.316308,-34.71521,992.0712
5.081521511,0.175047,0.1914694,-0.007703305,-0.5377926,0.1673907,0.8040005,36.55972,-7.316308,-34.71521,992.0712
5.086440086,0.113155,0.01374301,0.175113,-0.5353015,0.1692536,0.8098662,36.55972,-7.316308,-34.71521,992.0712
5.091359615,0.1131227,0.07293013,0.0531861,-0.5396841,0.1691775,0.8118418,36.55972,-7.316308,-34.71521,992.0712
5.096278667,-0.01051245,0.01368854,0.1141281,-0.5412564,0.1679197,0.8001616,36.55962,-6.5979,-34.2458,992.0712
5.103657246,-0.01050248,0.1320859,0.1140589,-0.5412443,0.1674141,0.8011163,36.55962,-6.5979,-34.2458,992.0712
5.108576775,0.113107,0.07280716,-0.06880508,-0.5411728,0.169688,0.8099284,36.55962,-6.5979,-34.2458,992.0712
5.113495827,0.05127336,0.07276151,-0.129699,-0.5372663,0.1649127,0.8063444,36.55962,-6.5979,-34.2458,992.0712
5.118415356,0.1130232,-0.1641791,-0.007781522,-0.5407656,0.1717781,0.802709,36.55962,-6.5979,-34.2458,992.0712
5.123334408,-0.07243279,-0.2233275,-0.007834045,-0.5407,0.1692412,0.807968,36.55962,-6.5979,-34.2458,992.0712
5.128253937,0.1129977,-0.1639728,0.1749631,-0.5372468,0.1672863,0.8098191,36.55962,-6.5979,-34.2458,992.0712
5.133172512,-0.01063732,0.07300652,-0.1297559,-0.5407353,0.1722021,0.806121,36.55962,-6.5979,-34.2458,992.0712
5.138091564,-0.01063059,-0.04550536,0.05309876,-0.5372466,0.1639106,0.8077687,36.55962,-6.5979,-34.2458,992.0712
5.143011093,-0.07238657,0.191474,-0.129746,-0.5412159,0.1673597,0.8040276,36.25087,-6.961904,-34.25771,992.0712
5.147930145,-0.07234106,-0.1048115,0.0531469,-0.5372068,0.1643164,0.8121513,36.25087,-6.961904,-34.25771,992.0712
5.152849674,-0.07229567,0.07291622,-0.007785359,-0.5411957,0.1687676,0.8069857,36.25087,-6.961904,-34.25771,992.0755
5.157768726,-0.1340323,-0.045577,-0.1296548,-0.5372083,0.1662479,0.8131842,36.25087,-6.961904,-34.25771,992.0755
5.162688255,0.05141746,0.01370323,0.1141753,-0.5398037,0.1713358,0.8007448,36.25087,-6.961904,-34.25771,992.0755
5.167606831,0.1749687,-0.04550117,-0.06874619,-0.5401607,0.1652919,0.8107502,36.25087,-6.961904,-34.25771,992.0755
5.174985886,0.1749203,0.07297058,0.175048,-0.5397286,0.1687808,0.8069742,36.25087,-6.961904,-34.25771,992.0755
5.179905415,-0.07235657,0.01365452,0.05308289,-0.5421782,0.1620165,0.8024076,36.25087,-6.961904,-34.25771,992.0755
5.184823990,0.1130739,0.07284175,-0.007887614,-0.5396805,0.1677244,0.8113097,36.25087,-6.961904,-34.25771,992.0755
5.189743042,-0.07240161,0.01358152,0.1140491,-0.5422356,0.1722523,0.8027362,36.25087,-6.961904,-34.25771,992.0755
5.194662571,0.05122738,-0.1641075,0.05305941,-0.5362563,0.1634139,0.8087158,36.24807,-6.595259,-34.24648,992.0738
5.199581623,-0.0106451,0.07290899,0.1140015,-0.5436639,0.167825,0.8040626,36.24807,-6.595259,-34.24648,992.0738
5.204501152,0.1747077,0.01368594,-0.007925255,-0.5382194,0.1663026,0.8097956,36.24807,-6.595259,-34.24648,992.0738
5.209420204,-0.01076761,0.2505723,0.05299773,-0.5407175,0.167346,0.8049942,36.24807,-6.595259,-34.24648,992.0738
5.214339733,-0.07258172,-0.04567589,-0.007934411,-0.5392125,0.1672867,0.8088642,36.24807,-6.595259,-34.24648,992.0738
5.219258308,0.1128295,0.01351133,-0.1298803,-0.544136,0.167306,0.8055064,36.24807,-6.595259,-34.24648,992.0738
5.224177361,0.05101537,0.01350274,-0.06886155,-0.5441484,0.1711871,0.8066021,36.24807,-6.595259,-34.24648,992.0738
5.229096890,-0.01077934,0.1911561,0.174892,-0.5377985,0.1659557,0.8024979,36.24807,-6.595259,-34.24648,992.0738
5.234015942,-0.01083081,-0.1050175,-0.129827,-0.5377409,0.1615054,0.8057535,36.24807,-6.595259,-34.24648,992.0738
5.238935471,0.1127401,0.131962,-0.06882746,-0.5416508,0.1643582,0.8078192,36.24807,-6.595259,-34.24648,992.0738
5.243854523,-0.07269634,-0.1642861,0.1140272,-0.5450994,0.1696798,0.8085036,36.5549,-6.585144,-34.62889,992.0738
5.251233101,0.05095565,-0.04573974,-0.00785881,-0.5363695,0.1694171,0.8006551,36.5549,-6.585144,-34.62889,992.0738
5.256152630,-0.01083901,0.01352196,0.05304496,-0.5372712,0.1682974,0.8079095,36.5549,-6.585144,-34.62889,992.0738
5.261071682,0.1127125,-0.1049526,-0.007925487,-0.5401173,0.1608689,0.8125501,36.5549,-6.585144,-34.62889,992.0738
5.265991211,-0.07272393,-0.1048494,-0.007920488,-0.5407426,0.1693229,0.8036011,36.5549,-6.585144,-34.62889,992.0738
5.270909786,-0.0108962,-0.04558774,-0.06879522,-0.542102,0.1642812,0.8117047,36.5549,-6.585144,-34.62889,992.0738
5.275829315,0.1126359,-0.04555904,-0.007853142,-0.5407317,0.1673732,0.8035386,36.5549,-6.585144,-34.62889,992.0738
5.280748367,-0.01105721,-0.1047263,-0.0688045,-0.5368356,0.1703331,0.8036015,36.5549,-6.585144,-34.62889,992.0738
5.285667896,0.1124944,0.07298279,-0.007824104,-0.5358781,0.1756854,0.8047363,36.5549,-6.585144,-34.62889,992.0738
5.290586948,-0.1347045,-0.1639766,0.05309882,-0.5401744,0.167729,0.8108284,35.86591,-6.210563,-34.68298,992.0738
5.295506477,-0.07281838,0.07302133,0.05306545,-0.5392441,0.1654187,0.8044347,35.86591,-6.210563,-34.68298,992.0738
5.300425530,0.05081091,-0.223171,-0.007885899,-0.538193,0.1657698,0.8122059,35.86591,-6.210563,-34.68298,992.0738
5.305344105,-0.07282398,0.01386405,0.1139742,-0.5393254,0.1699143,0.7987531,35.86591,-6.210563,-34.68298,992.0738
5.310263634,0.05080531,0.1322842,-0.1907066,-0.5377722,0.1654229,0.8049083,35.86591,-6.210563,-34.68298,992.0738
5.317642689,-0.07276779,0.07298233,0.1749429,-0.5436062,0.1633748,0.8073182,35.86591,-6.210563,-34.68298,992.0721
5.322561264,0.05082258,-0.1639398,0.05303528,-0.5392478,0.1702475,0.8070172,35.86591,-6.210563,-34.68298,992.0721
5.327480793,-0.07279284,-0.1045852,-0.1298095,-0.5426203,0.1686727,0.8113642,35.86591,-6.210563,-34.68298,992.0721
5.332399845,-0.07270824,0.132394,-0.3734765,-0.5387403,0.1678058,0.8074204,35.86591,-6.210563,-34.68298,992.0721
