time;acc_x;acc_y;acc_z;gyr_x;gyr_y;gyr_z
0.002500;-5.460718;2.679725;7.817745;0.019378;-0.058187;-0.040527
0.005000;-5.460783;2.672509;7.810316;0.031860;-0.039256;-0.045808
0.007500;-5.471857;2.669218;7.791602;0.019150;-0.044716;-0.027279
0.010000;-5.466349;2.671112;7.784389;0.025046;-0.056367;-0.013237
0.012500;-5.464391;2.687526;7.788260;0.033401;-0.058385;-0.018744
0.015000;-5.460654;2.690826;7.810476;0.033163;-0.041777;-0.004381
0.017500;-5.457034;2.687351;7.795805;0.042955;-0.043558;-0.032796
0.020000;-5.466223;2.683630;7.804754;0.025296;-0.060415;-0.026381
0.022500;-5.467956;2.700241;7.797488;0.031643;-0.058229;-0.034018
0.025000;-5.464288;2.700237;7.795737;0.018109;-0.046837;-0.025130
0.027500;-5.449588;2.699998;7.803462;0.035807;-0.050870;-0.036136
0.030000;-5.460764;2.676227;7.806666;0.035730;-0.045665;-0.032795
0.032500;-5.453401;2.677940;7.810544;0.015711;-0.047010;-0.008752
0.035000;-5.464332;2.690913;7.806704;0.006882;-0.064580;-0.032927
0.037500;-5.473489;2.696626;7.797321;0.028656;-0.056084;-0.039440
0.040000;-5.475347;2.691009;7.806434;0.028430;-0.053065;-0.027402
0.042500;-5.477161;2.694716;7.804580;0.027333;-0.047878;-0.022979
0.045000;-5.467994;2.688920;7.819486;0.016208;-0.065566;-0.036235
0.047500;-5.460686;2.687217;7.806762;0.036480;-0.050009;-0.017572
0.050000;-5.460647;2.690770;7.814159;0.023170;-0.054183;-0.021947
0.052500;-5.471746;2.679931;7.810110;0.015345;-0.058151;-0.044878
0.055000;-5.471824;2.672826;7.795317;0.009248;-0.041384;-0.047950
0.057500;-5.479103;2.683990;7.787868;-0.001253;-0.038394;-0.035889
0.060000;-5.468062;2.685616;7.795519;0.017388;-0.035152;-0.041363
0.062500;-5.475425;2.683903;7.791641;0.004939;-0.054060;-0.038258
0.065000;-5.471798;2.676489;7.795349;-0.034202;-0.039510;-0.036902
0.067500;-5.486485;2.676617;7.794989;0.021522;-0.036173;-0.042469
0.070000;-5.473474;2.702314;7.784481;0.009149;-0.049832;-0.041504
0.072500;-5.479045;2.691262;7.791615;0.027531;-0.049862;-0.033911
0.075000;-5.482743;2.689573;7.784144;0.016958;-0.056317;-0.019765
0.077500;-5.482759;2.685826;7.789635;0.030067;-0.054819;-0.060157
0.080000;-5.482787;2.678306;7.802459;0.031277;-0.037971;-0.068705
0.082500;-5.466252;2.679994;7.802881;0.019456;-0.037228;-0.042480
0.085000;-5.468123;2.674487;7.804629;0.009193;-0.049781;-0.045860
0.087500;-5.447878;2.683580;7.797839;0.004436;-0.030281;-0.009634
0.090000;-5.448003;2.663294;7.806869;0.014687;-0.056414;-0.011029
0.092500;-5.449788;2.672579;7.799539;0.027051;-0.048021;-0.009883
0.095000;-5.453459;2.672611;7.799449;0.049709;-0.060516;-0.011170
0.097500;-5.457098;2.672366;7.817771;0.019036;-0.036406;-0.020647
0.100000;-5.464442;2.676315;7.802894;0.014584;-0.058573;-0.004507
0.102500;-5.471749;2.679959;7.808269;-0.003783;-0.045973;-0.011959
0.105000;-5.460808;2.668845;7.810284;0.025017;-0.043821;-0.010920
0.107500;-5.460732;2.683720;7.795683;0.027200;-0.042717;-0.016375
0.110000;-5.479006;2.694815;7.799011;0.027494;-0.037331;-0.030503
0.112500;-5.479090;2.683880;7.795233;0.019192;-0.056207;-0.029590
0.115000;-5.460764;2.678170;7.799317;0.020304;-0.046740;-0.033857
0.117500;-5.486504;2.670956;7.805988;0.037734;-0.044640;-0.029509
0.120000;-5.475491;2.665061;7.826463;0.037395;-0.056323;-0.013268
0.122500;-5.468158;2.668965;7.806422;0.012836;-0.050031;-0.020774
0.125000;-5.471897;2.657924;7.811759;0.034503;-0.042623;-0.022930
0.127500;-5.464503;2.669071;7.797306;0.016984;-0.032226;-0.020592
0.130000;-5.468071;2.679872;7.812041;0.007220;-0.049739;-0.050221
0.132500;-5.468094;2.680065;7.799153;0.012820;-0.043774;-0.018527
0.135000;-5.468123;2.672545;7.811977;-0.001677;-0.048028;-0.015258
0.137500;-5.457040;2.679638;7.821517;0.034395;-0.058386;-0.017655
0.140000;-5.460753;2.674202;7.819538;0.003291;-0.051729;-0.061144
0.142500;-5.473505;2.690938;7.810161;0.017347;-0.051909;-0.040454
0.145000;-5.464216;2.705456;7.814197;0.023577;-0.041416;-0.041456
0.147500;-5.460602;2.694268;7.825238;0.015354;-0.034094;-0.042442
0.150000;-5.455191;2.683396;7.814230;0.019645;-0.032938;-0.052259
0.152500;-5.456947;2.694374;7.816122;0.023455;-0.043567;-0.036020
0.155000;-5.455094;2.692278;7.832721;0.012999;-0.049949;-0.028423
0.157500;-5.453397;2.675970;7.819734;0.001482;-0.079362;-0.022158
0.160000;-5.446046;2.671966;7.838294;0.014904;-0.052106;-0.021899
0.162500;-5.449812;2.661146;7.828902;-0.003565;-0.041649;-0.025005
0.165000;-5.442439;2.662776;7.838304;0.016611;-0.035554;-0.002081
0.167500;-5.442427;2.668492;7.823622;0.002677;-0.057296;-0.029560
0.170000;-5.458927;2.672327;7.821408;0.026459;-0.055095;-0.033963
0.172500;-5.464499;2.665159;7.813844;-0.001347;-0.052023;-0.033851
0.175000;-5.460757;2.674230;7.817697;0.018142;-0.030058;-0.027122
0.177500;-5.453436;2.672417;7.812337;0.022126;-0.022802;-0.019417
0.180000;-5.453371;2.679633;7.819766;-0.007803;-0.041741;-0.017362
0.182500;-5.457073;2.679914;7.803106;0.012801;-0.027048;-0.016166
0.185000;-5.460680;2.687162;7.810444;0.014527;-0.050243;-0.000056
0.187500;-5.451545;2.679700;7.814288;0.031734;-0.032009;-0.038096
0.190000;-5.449725;2.675938;7.819824;0.020155;-0.057275;-0.027426
0.192500;-5.453419;2.670337;7.828892;0.021371;-0.039381;-0.035962
0.195000;-5.457142;2.663042;7.828738;0.020278;-0.023723;-0.031421
0.197500;-5.458928;2.676211;7.806711;0.023787;-0.027683;-0.053301
0.200000;-5.464505;2.663272;7.817511;0.014999;-0.043685;-0.026166
0.202500;-5.468129;2.670658;7.815644;0.015281;-0.039350;-0.040307
0.205000;-5.477260;2.680035;7.806293;0.034692;-0.044628;-0.031688
0.207500;-5.479154;2.668895;7.817199;0.029553;-0.055083;-0.033966
0.210000;-5.473466;2.694490;7.817558;0.039507;-0.045854;-0.013170
0.212500;-5.473478;2.690716;7.824891;0.023205;-0.047884;-0.022968
0.215000;-5.471717;2.683567;7.811983;0.023397;-0.037316;-0.032672
0.217500;-5.464441;2.672430;7.817591;0.014943;-0.046860;-0.022930
0.220000;-5.464383;2.679702;7.821337;0.037586;-0.072966;-0.024368
0.222500;-5.464319;2.690802;7.814069;0.031836;-0.056018;-0.044904
0.225000;-5.460680;2.687162;7.810444;0.028572;-0.059258;-0.036201
0.227500;-5.471740;2.683761;7.799095;0.021175;-0.051014;-0.025176
0.230000;-5.468088;2.680010;7.802836;0.014835;-0.033333;-0.015146
0.232500;-5.464333;2.692855;7.799355;0.028534;-0.025816;-0.030383
0.235000;-5.464391;2.685584;7.795609;0.023168;-0.029083;-0.019490
0.237500;-5.453382;2.683601;7.799545;0.027612;-0.038304;-0.038153
0.240000;-5.466377;2.661650;7.804561;0.020732;-0.041828;-0.002154
0.242500;-5.453445;2.668616;7.821511;0.020941;-0.027068;-0.011821
0.245000;-5.460808;2.668845;7.810284;0.020847;-0.050136;-0.008795
0.247500;-5.447912;2.672231;7.821678;0.015205;-0.057174;-0.038322
0.250000;-5.446050;2.675878;7.821755;0.034887;-0.038237;-0.042536
0.252500;-5.449712;2.677770;7.819840;0.021434;-0.030986;-0.038057
0.255000;-5.446034;2.675740;7.830961;0.025460;-0.072862;-0.037430
0.257500;-5.445889;2.697803;7.825630;0.025342;-0.023784;-0.024903
0.260000;-5.453401;2.677940;7.810544;0.031402;-0.047883;-0.021898
0.262500;-5.453368;2.679606;7.821607;0.006526;-0.033386;-0.011854
0.265000;-5.444177;2.687184;7.799802;0.005938;-0.042570;-0.035962
0.267500;-5.457118;2.672532;7.806724;0.004976;-0.042521;-0.040316
0.270000;-5.444199;2.679609;7.816309;0.004494;-0.027102;-0.012873
0.272500;-5.446039;2.683537;7.799725;0.019191;-0.047839;-0.029506
0.275000;-5.453433;2.672389;7.814179;0.016936;-0.047940;-0.019675
0.277500;-5.449684;2.683348;7.814365;0.010532;-0.030306;-0.005286
0.280000;-5.457147;2.668896;7.804851;0.017013;-0.049990;-0.024060
0.282500;-5.464519;2.665325;7.802797;0.027126;-0.050065;-0.014265
0.285000;-5.466336;2.669059;7.799102;0.010566;-0.041787;-0.008675
0.287500;-5.460834;2.663240;7.817601;-0.004192;-0.037249;-0.045686
0.290000;-5.447982;2.659243;7.832613;0.001030;-0.060200;-0.052498
0.292500;-5.451661;2.661273;7.821492;-0.001483;-0.054186;-0.027328
0.295000;-5.464500;2.667101;7.806496;-0.020609;-0.035739;0.006751
0.297500;-5.468184;2.663359;7.813738;0.023265;-0.040513;-0.027244
0.300000;-5.458953;2.668664;7.821376;0.031398;-0.043691;-0.021848
0.302500;-5.473682;2.665266;7.811778;0.042979;-0.040385;-0.034934
0.305000;-5.468110;2.676319;7.804645;0.043608;-0.043753;-0.013153
0.307500;-5.460777;2.676338;7.799301;0.025362;-0.025857;-0.027096
0.310000;-5.458976;2.668857;7.808488;0.028251;-0.042689;-0.018555
0.312500;-5.464371;2.687360;7.799307;0.006065;-0.032039;-0.041300
0.315000;-5.451494;2.687027;7.814352;0.014679;-0.029238;-0.006378
0.317500;-5.457002;2.690959;7.799519;0.027418;-0.038417;-0.027244
0.320000;-5.464374;2.683503;7.812163;0.044178;-0.022520;-0.041299
0.322500;-5.453255;2.694176;7.827259;0.031630;-0.031027;-0.031543
0.325000;-5.451496;2.683170;7.827208;0.024275;-0.043100;-0.080753
0.327500;-5.457107;2.668565;7.826945;0.023405;-0.055079;-0.036136
0.330000;-5.460743;2.674119;7.825062;0.026655;-0.036159;-0.042488
0.332500;-5.460753;2.674202;7.819538;0.041602;-0.043722;-0.016422
0.335000;-5.468122;2.668661;7.826675;-0.001459;-0.035347;-0.026032
0.337500;-5.458914;2.672216;7.828773;0.014892;-0.025966;-0.018340
0.340000;-5.464479;2.664993;7.824891;0.013628;-0.040738;-0.007581
0.342500;-5.460789;2.668680;7.821331;0.033397;-0.043719;-0.018580
0.345000;-5.460805;2.668818;7.812125;0.031298;-0.031197;-0.015165
0.347500;-5.460908;2.654164;7.811997;0.026097;-0.027044;-0.012919
0.350000;-5.453604;2.650547;7.804780;0.028622;-0.025735;-0.038008
0.352500;-5.457131;2.672643;7.799359;0.035946;-0.047637;-0.044819
0.355000;-5.453497;2.661289;7.821447;0.031659;-0.051908;-0.037213
0.357500;-5.457001;2.683191;7.828914;0.015397;-0.048705;-0.046962
0.360000;-5.457055;2.672007;7.841706;0.021193;-0.037385;-0.026120
0.362500;-5.447889;2.673980;7.827218;0.019106;-0.041595;-0.025070
0.365000;-5.449767;2.668528;7.825283;0.034567;-0.055144;-0.027439
0.367500;-5.449728;2.672081;7.832680;0.019337;-0.048785;-0.038242
0.370000;-5.456994;2.683135;7.832596;0.032989;-0.046521;-0.051351
0.372500;-5.457046;2.679693;7.817835;0.023291;-0.033187;-0.027173
0.375000;-5.453355;2.683380;7.814275;0.017377;-0.035151;-0.041365
0.377500;-5.464300;2.694521;7.810418;0.022409;-0.043581;-0.034925
0.380000;-5.458772;2.694307;7.821600;0.047814;-0.049978;-0.017605
0.382500;-5.464361;2.685335;7.812179;0.035432;-0.047927;-0.016454
0.385000;-5.460744;2.676062;7.817713;0.019308;-0.035211;-0.034820
0.387500;-5.468145;2.668854;7.813786;0.018029;-0.035348;-0.021720
0.390000;-5.464438;2.672403;7.819432;0.042970;-0.036209;-0.033802
0.392500;-5.460808;2.668845;7.810284;0.042328;-0.045410;-0.055722
0.395000;-5.464515;2.661412;7.819336;0.034789;-0.042465;-0.038208
0.397500;-5.453510;2.661399;7.814082;0.032979;-0.024552;-0.050014
0.400000;-5.451616;2.666713;7.825222;0.015259;-0.033081;-0.039150
0.402500;-5.453474;2.661095;7.834335;0.021335;-0.054036;-0.036118
0.405000;-5.471965;2.650735;7.802489;0.033818;-0.039294;-0.041439
0.407500;-5.457144;2.670811;7.799343;0.046288;-0.044448;-0.046994
0.410000;-5.457111;2.672477;7.810406;0.048360;-0.024560;-0.045694
0.412500;-5.467981;2.690751;7.819502;0.012098;-0.048837;-0.034952
0.415000;-5.464470;2.668794;7.815718;0.031813;-0.041370;-0.043647
0.417500;-5.457239;2.650276;7.824943;0.013302;-0.046615;-0.046922
0.420000;-5.448028;2.657688;7.814185;0.035892;-0.028824;-0.041339
0.422500;-5.453451;2.662844;7.839875;0.023573;-0.045563;-0.044762
0.425000;-5.459059;2.654038;7.819407;0.014829;-0.014485;-0.014935
0.427500;-5.449812;2.663089;7.821553;0.018272;-0.026839;-0.034724
0.430000;-5.457232;2.650220;7.828626;-0.002333;-0.036296;-0.035857
0.432500;-5.446152;2.655398;7.843673;0.017131;-0.049902;-0.031696
0.435000;-5.446247;2.650373;7.812325;0.020328;-0.032059;-0.035874
0.437500;-5.438868;2.653889;7.818061;0.033972;-0.025610;-0.048938
0.440000;-5.449909;2.648380;7.825107;0.023230;-0.033196;-0.026072
0.442500;-5.449864;2.657704;7.814140;0.025747;-0.047591;-0.051335
0.445000;-5.453567;2.650244;7.825033;0.004479;-0.041730;-0.015202
0.447500;-5.451757;2.646564;7.825046;0.008666;-0.059461;-0.020861
0.450000;-5.457130;2.668758;7.814056;0.031504;-0.028991;-0.026054
0.452500;-5.460789;2.670622;7.813982;0.006968;-0.058240;-0.038308
0.455000;-5.471862;2.661504;7.817315;0.018074;-0.040546;-0.025047
0.457500;-5.477343;2.665215;7.817212;0.008761;-0.046872;-0.022908
0.460000;-5.475617;2.650601;7.813446;0.013030;-0.031079;-0.030382
0.462500;-5.468222;2.657864;7.813690;0.019243;-0.051971;-0.033902
0.465000;-5.471926;2.654288;7.809886;0.002916;-0.020547;-0.038972
0.467500;-5.468122;2.668661;7.826675;0.016740;-0.030260;-0.007476
0.470000;-5.460802;2.668790;7.813966;0.030314;-0.040588;-0.018538
0.472500;-5.473672;2.665183;7.817302;0.025398;-0.047789;-0.031693
0.475000;-5.482723;2.687465;7.802540;0.009892;-0.028006;-0.024895
0.477500;-5.488301;2.678410;7.798642;0.008912;-0.042619;-0.029411
0.480000;-5.482774;2.678196;7.809824;0.011401;-0.039234;-0.052297
0.482500;-5.468108;2.680176;7.791789;0.006293;-0.038185;-0.054458
0.485000;-5.466291;2.674499;7.802832;-0.007438;-0.043632;-0.037019
0.487500;-5.466186;2.683326;7.825007;0.013491;-0.056993;-0.055775
0.490000;-5.471745;2.676047;7.824808;0.012200;-0.038308;-0.040288
0.492500;-5.457124;2.668703;7.817739;0.023248;-0.052031;-0.027373
0.495000;-5.449747;2.668363;7.836330;0.071606;-0.050885;-0.025311
0.497500;-5.457130;2.668758;7.814056;0.004903;-0.034189;-0.035859
0.500000;-5.453433;2.672389;7.814179;0.036617;-0.040507;-0.025104
0.502500;-5.446225;2.657948;7.795819;0.004992;-0.020541;-0.040074
0.505000;-5.464545;2.661661;7.802765;0.006715;-0.045826;-0.023983
0.507500;-5.457162;2.663208;7.817691;0.004814;-0.034233;-0.031493
0.510000;-5.453426;2.674276;7.810512;0.025538;-0.026801;-0.036929
0.512500;-5.451687;2.661494;7.806763;0.009947;-0.055152;-0.032825
0.515000;-5.460715;2.683582;7.804889;0.013967;-0.046845;-0.025114
0.517500;-5.458908;2.676046;7.817758;0.006608;-0.032293;-0.016205
0.520000;-5.456962;2.688686;7.828962;0.009799;-0.053155;-0.022992
0.522500;-5.464415;2.676094;7.817623;0.007152;-0.024669;-0.044493
0.525000;-5.460699;2.683444;7.814095;0.043881;-0.028960;-0.026092
0.527500;-5.460727;2.675923;7.826919;0.018972;-0.028072;-0.016192
0.530000;-5.451629;2.668765;7.810509;0.019039;-0.018622;-0.019362
0.532500;-5.449800;2.666862;7.814220;0.040653;-0.023803;-0.019477
0.535000;-5.457156;2.665095;7.814024;0.034091;-0.047041;-0.001159
0.537500;-5.453458;2.668726;7.814146;0.017924;-0.045866;-0.017472
0.540000;-5.446038;2.677710;7.821771;0.013227;-0.047724;-0.041490
0.542500;-5.453507;2.661372;7.815924;0.010533;-0.064807;-0.010016
0.545000;-5.442511;2.657557;7.819844;0.013873;-0.055242;-0.023017
0.547500;-5.457249;2.650358;7.819420;0.018890;-0.059481;-0.016524
0.550000;-5.457233;2.654105;7.813928;0.000748;-0.033163;-0.034741
0.552500;-5.453503;2.657460;7.832462;0.006011;-0.063417;-0.043815
0.555000;-5.457182;2.661431;7.813992;0.021312;-0.033135;-0.032616
0.557500;-5.466348;2.663343;7.813783;0.019168;-0.050970;-0.029529
0.560000;-5.468071;2.679872;7.812041;0.000456;-0.058447;-0.019744
0.562500;-5.457046;2.679693;7.817835;0.015325;-0.041424;-0.042517
0.565000;-5.459069;2.652178;7.821232;0.004861;-0.035244;-0.034774
0.567500;-5.457207;2.657768;7.813960;0.018018;-0.056266;-0.024127
0.570000;-5.457185;2.661459;7.812151;0.021445;-0.051890;-0.041549
0.572500;-5.453497;2.665173;7.806750;0.015277;-0.060272;-0.042716
0.575000;-5.447945;2.670565;7.810615;0.012969;-0.052049;-0.028439
0.577500;-5.453523;2.661510;7.806718;0.009807;-0.041632;-0.023948
0.580000;-5.449787;2.668694;7.814236;0.004956;-0.037298;-0.039168
0.582500;-5.453497;2.665173;7.806750;0.010964;-0.079217;-0.034181
0.585000;-5.457079;2.676085;7.814121;0.019066;-0.058358;-0.024159
0.587500;-5.451512;2.679424;7.832699;0.025498;-0.040417;-0.035988
0.590000;-5.457149;2.661155;7.832404;0.029341;-0.060421;-0.024205
0.592500;-5.460814;2.665016;7.821299;0.006522;-0.052205;-0.014234
0.595000;-5.457110;2.668592;7.825103;0.023206;-0.039500;-0.023964
0.597500;-5.464435;2.674317;7.813925;0.027011;-0.026074;-0.005279
0.600000;-5.468142;2.668826;7.815628;0.004413;-0.050151;-0.010932
0.602500;-5.464364;2.683420;7.817687;0.001640;-0.040579;-0.026103
0.605000;-5.475392;2.683627;7.810052;-0.001140;-0.028911;-0.041243
0.607500;-5.473639;2.668792;7.821016;0.023776;-0.031863;-0.053341
0.610000;-5.466277;2.672446;7.817546;0.083265;-0.043359;-0.041626
0.612500;-5.479198;2.661513;7.820817;0.036071;-0.041275;-0.051290
0.615000;-5.477357;2.665326;7.809847;0.029629;-0.043535;-0.037113
0.617500;-5.468226;2.657892;7.811849;0.019125;-0.048898;-0.027322
0.620000;-5.468119;2.672517;7.813818;0.007313;-0.062233;-0.056901
0.622500;-5.473537;2.687329;7.806447;0.025524;-0.037278;-0.035952
0.625000;-5.481003;2.669021;7.809789;0.014972;-0.043706;-0.023982
0.627500;-5.477225;2.683615;7.811848;0.009539;-0.052254;-0.008789
0.630000;-5.468084;2.676098;7.819374;0.014780;-0.037539;-0.013008
0.632500;-5.479141;2.672669;7.809866;0.001321;-0.032382;-0.008548
0.635000;-5.453500;2.661317;7.819606;0.010747;-0.045859;-0.019632
0.637500;-5.457085;2.674198;7.817787;0.004234;-0.003661;-0.051897
0.640000;-5.438749;2.668405;7.827395;-0.001134;-0.053995;-0.045882
0.642500;-5.438803;2.661106;7.825489;0.015577;-0.068464;-0.060267
0.645000;-5.442436;2.664690;7.832796;0.013223;-0.064449;-0.043850
0.647500;-5.429621;2.662940;7.820207;0.023028;-0.076207;-0.018909
0.650000;-5.435158;2.657410;7.825547;0.004518;-0.043806;-0.017413
0.652500;-5.427717;2.668171;7.836871;0.013391;-0.047622;-0.051311
0.655000;-5.424084;2.664586;7.829564;0.011759;-0.063648;-0.020926
0.657500;-5.442436;2.666633;7.825448;0.031428;-0.057270;-0.025272
0.660000;-5.449818;2.661202;7.825219;0.011667;-0.049054;-0.014214
0.662500;-5.449676;2.679408;7.832744;0.025839;-0.055918;-0.055798
0.665000;-5.448041;2.653914;7.821518;0.008754;-0.073017;-0.026467
0.667500;-5.442474;2.657253;7.840097;0.073051;-0.061102;-0.049429
0.670000;-5.451663;2.655474;7.841697;0.010668;-0.062627;-0.017630
0.672500;-5.449856;2.649880;7.847217;0.011170;-0.050930;0.066517
0.675000;-5.431459;2.655215;7.847715;0.019198;-0.054076;-0.032841
0.677500;-5.431494;2.647750;7.856857;0.018985;-0.040588;-0.020689
0.680000;-5.442532;2.648040;7.843699;0.017233;-0.043565;-0.037082
0.682500;-5.444474;2.631488;7.849033;0.014509;-0.056953;-0.059037
0.685000;-5.438898;2.638628;7.858438;-0.007994;-0.048082;-0.010873
0.687500;-5.449927;2.640777;7.843455;0.005899;-0.043590;-0.037048
0.690000;-5.442533;2.649982;7.836350;0.011945;-0.017508;-0.026965
0.692500;-5.449888;2.646272;7.843503;0.030070;-0.050681;0.046829
0.695000;-5.446072;2.668303;7.838262;0.023227;-0.047852;-0.026239
0.697500;-5.447814;2.677229;7.854867;0.021478;-0.050824;-0.042638
0.700000;-5.455152;2.685006;7.828975;0.023581;-0.070682;-0.046133
0.702500;-5.446011;2.679431;7.829152;0.029716;-0.053952;-0.042694
0.705000;-5.449715;2.675855;7.825348;0.029513;-0.064523;-0.032985
0.707500;-5.431353;2.671783;7.842336;0.005721;-0.045804;-0.026174
0.710000;-5.433279;2.660919;7.834830;0.018968;-0.050028;-0.019704
0.712500;-5.435115;2.660935;7.834785;0.022472;-0.071756;-0.043955
0.715000;-5.435035;2.671898;7.836723;0.016780;-0.062664;-0.013292
0.717500;-5.449767;2.668528;7.825283;0.005737;-0.064626;-0.028555
0.720000;-5.444188;2.673699;7.843878;0.001458;-0.051125;-0.018580
0.722500;-5.438628;2.679036;7.851426;0.022044;-0.072001;-0.019956
0.725000;-5.435006;2.675534;7.838596;0.021223;-0.041556;-0.028353
0.727500;-5.435016;2.675617;7.833072;0.003825;-0.049908;-0.034943
0.730000;-5.427579;2.690289;7.827857;0.010937;-0.043681;-0.028354
0.732500;-5.431215;2.691959;7.840671;0.010816;-0.031193;-0.020581
0.735000;-5.423937;2.686621;7.826074;0.028583;-0.042513;-0.036027
0.737500;-5.414730;2.682436;7.855726;0.021165;-0.038450;-0.025053
0.740000;-5.412894;2.682420;7.855771;0.023056;-0.054229;-0.017591
0.742500;-5.423884;2.690063;7.840835;0.026679;-0.061257;-0.046047
0.745000;-5.423990;2.671553;7.853563;0.026458;-0.044626;-0.033857
0.747500;-5.427658;2.669615;7.862663;0.037931;-0.054974;-0.042729
0.750000;-5.427665;2.671613;7.851632;0.008873;-0.056219;-0.030661
0.752500;-5.437024;2.646049;7.851183;0.027288;-0.052039;-0.025199
0.755000;-5.427768;2.655017;7.858852;0.018360;-0.046646;-0.042580
0.757500;-5.416857;2.646094;7.836948;0.039774;-0.044620;-0.031703
0.760000;-5.414949;2.653239;7.848104;0.020813;-0.045949;-0.008755
0.762500;-5.420589;2.633056;7.853317;0.017021;-0.043669;-0.027261
0.765000;-5.405854;2.640282;7.851900;-0.003389;-0.043622;-0.037032
0.767500;-5.402008;2.662065;7.863229;0.019262;-0.048811;-0.036067
0.770000;-5.420386;2.664333;7.844383;0.030194;-0.049011;-0.014272
0.772500;-5.407516;2.664055;7.855745;0.009710;-0.063639;-0.022016
0.775000;-5.407532;2.662251;7.853888;-0.001387;-0.045756;-0.032703
0.777500;-5.424013;2.669804;7.848024;0.021460;-0.050831;-0.042640
0.780000;-5.427801;2.657236;7.833092;0.017416;-0.035106;-0.045726
0.782500;-5.424142;2.655372;7.833166;0.034083;-0.028682;-0.055522
0.785000;-5.429723;2.640518;7.849473;0.029596;-0.030972;-0.036979
0.787500;-5.429659;2.653561;7.834856;0.042954;-0.035154;-0.034882
0.790000;-5.427794;2.657180;7.836774;0.043980;-0.039340;-0.034932
0.792500;-5.424226;2.642495;7.836736;0.033779;-0.030933;-0.040265
0.795000;-5.431460;2.661042;7.825669;0.014155;-0.032076;-0.035864
0.797500;-5.420405;2.660614;7.848034;0.019344;-0.052953;-0.040472
0.800000;-5.420444;2.655119;7.847985;0.031517;-0.024780;-0.028195
0.802500;-5.429597;2.656920;7.855141;0.021224;-0.037353;-0.029393
0.805000;-5.438810;2.661161;7.821807;0.031306;-0.014449;-0.014986
0.807500;-5.446217;2.646240;7.843593;0.029741;-0.013116;-0.042240
0.810000;-5.457104;2.668537;7.828786;0.029473;-0.035251;-0.028299
0.812500;-5.468132;2.668744;7.821151;0.050344;-0.032958;-0.042514
0.815000;-5.462605;2.670472;7.824984;0.037897;-0.024671;-0.036936
0.817500;-5.464428;2.672320;7.824955;0.023500;-0.025741;-0.038001
0.820000;-5.473730;2.657912;7.813555;0.031582;-0.026847;-0.030389
0.822500;-5.468286;2.646763;7.820959;0.022289;-0.007000;-0.027964
0.825000;-5.464574;2.656083;7.808241;0.037563;-0.045770;-0.021882
0.827500;-5.458914;2.676101;7.814076;0.037636;-0.050972;-0.025220
0.830000;-5.464464;2.672624;7.804703;0.041937;-0.051908;-0.035060
0.832500;-5.453433;2.672389;7.814179;0.019901;-0.049047;-0.013148
0.835000;-5.436826;2.683180;7.818362;0.018422;-0.059197;-0.044906
0.837500;-5.436714;2.699693;7.816665;0.029662;-0.050863;-0.038304
0.840000;-5.429476;2.683061;7.822224;0.010933;-0.041587;-0.028329
0.842500;-5.444138;2.690737;7.807199;0.037841;-0.033090;-0.033764
0.845000;-5.442347;2.683339;7.810862;0.026382;-0.032138;-0.027174
0.847500;-5.458934;2.676267;7.803029;0.022420;-0.047748;-0.037147
0.850000;-5.460715;2.683582;7.804889;0.026519;-0.027880;-0.033671
0.852500;-5.464378;2.687415;7.795625;0.019554;-0.058101;-0.049257
0.855000;-5.444163;2.683189;7.821864;0.000783;-0.054082;-0.037163
0.857500;-5.458914;2.676101;7.814076;0.023429;-0.046707;-0.036047
0.860000;-5.473626;2.668681;7.828381;0.021885;-0.034433;-0.007534
0.862500;-5.464447;2.670543;7.821257;-0.005600;-0.062569;-0.027409
0.865000;-5.464351;2.683310;7.825052;0.023165;-0.052085;-0.021921
0.867500;-5.457053;2.679748;7.814153;0.008767;-0.074076;-0.025394
0.870000;-5.464460;2.668712;7.821241;0.012897;-0.073003;-0.026480
0.872500;-5.471820;2.670856;7.804507;0.004693;-0.068827;-0.027502
0.875000;-5.468123;2.674487;7.804629;0.021947;-0.051146;-0.012083
0.877500;-5.475454;2.676383;7.804465;0.021061;-0.040610;-0.018513
0.880000;-5.480913;2.685728;7.795204;0.002720;-0.041602;-0.028296
0.882500;-5.482678;2.692904;7.806270;0.013112;-0.051986;-0.033895
0.885000;-5.482749;2.683801;7.802508;0.006691;-0.056314;-0.021919
0.887500;-5.490037;2.691164;7.804233;-0.001759;-0.055410;-0.009884
0.890000;-5.493812;2.678485;7.796666;0.006795;-0.066714;-0.028574
0.892500;-5.490129;2.688054;7.767377;0.009174;-0.066548;-0.044950
0.895000;-5.503147;2.662412;7.774203;-0.000340;-0.050996;-0.031650
0.897500;-5.501299;2.666169;7.766915;0.059122;-0.081337;-0.020138
0.900000;-5.497810;2.636637;7.779637;-0.007751;-0.066796;-0.024155
0.902500;-5.505308;2.616663;7.771916;-0.006892;-0.059554;-0.015341
0.905000;-5.486994;2.605237;7.790681;-0.003807;-0.073133;-0.017679
0.907500;-5.498060;2.598006;7.790347;-0.002591;-0.081389;-0.028678
0.910000;-5.483307;2.595383;7.834879;-0.024571;-0.089991;-0.011257
0.912500;-5.466593;2.628541;7.813479;-0.002107;-0.092166;0.000647
0.915000;-5.449864;2.659646;7.806792;-0.023354;-0.078435;-0.016619
0.917500;-5.424027;2.675742;7.818613;-0.001658;-0.090904;-0.021189
0.920000;-5.424105;2.666694;7.811168;-0.021374;-0.076388;-0.012246
0.922500;-5.409260;2.690460;7.806213;-0.013092;-0.076362;-0.013370
0.925000;-5.387204;2.691990;7.814134;-0.001797;-0.092042;-0.013576
0.927500;-5.354296;2.661815;7.853352;-0.014067;-0.093036;-0.021189
0.930000;-5.330471;2.652255;7.866745;-0.020627;-0.100574;-0.002705
0.932500;-5.308639;2.614932;7.900106;-0.013157;-0.080501;-0.017776
0.935000;-5.319529;2.633372;7.898155;-0.006802;-0.076218;-0.025389
0.937500;-5.324933;2.646132;7.905497;0.000294;-0.080453;-0.018911
0.940000;-5.332258;2.653799;7.886969;-0.012045;-0.064795;-0.017618
0.942500;-5.346810;2.676072;7.875754;-0.009941;-0.071060;-0.018787
0.945000;-5.346680;2.688563;7.897961;-0.018137;-0.064783;-0.019793
0.947500;-5.343176;2.666661;7.890494;-0.011670;-0.059365;-0.036112
0.950000;-5.339726;2.629692;7.910516;0.016483;-0.060685;-0.002364
0.952500;-5.347353;2.593343;7.895286;0.006241;-0.039738;-0.005368
0.955000;-5.351181;2.565596;7.915209;0.055310;-0.054435;0.010718
0.957500;-5.371421;2.564216;7.896286;-0.001194;-0.075422;0.001918
0.960000;-5.375054;2.567801;7.903592;-0.001416;-0.058241;-0.039360
0.962500;-5.384279;2.566326;7.884940;0.009904;-0.040441;-0.037013
0.965000;-5.380543;2.573510;7.892458;-0.006008;-0.054337;-0.013118
0.967500;-5.391651;2.560812;7.890235;0.004461;-0.030151;-0.020515
0.970000;-5.391635;2.564558;7.884744;0.017657;-0.051148;-0.012050
0.972500;-5.391735;2.549877;7.886457;0.001986;-0.052345;-0.001104
0.975000;-5.406477;2.542706;7.884191;0.016425;-0.050201;-0.002205
0.977500;-5.404648;2.544687;7.873205;0.033115;-0.034358;-0.011900
0.980000;-5.419386;2.537489;7.872781;0.021099;-0.035239;-0.030422
0.982500;-5.406487;2.544731;7.871319;0.018965;-0.045751;-0.027261
0.985000;-5.424816;2.546585;7.880091;0.037401;-0.024840;-0.019444
0.987500;-5.421112;2.552103;7.876547;0.022770;-0.021861;-0.007371
0.990000;-5.417376;2.561229;7.876717;0.029930;-0.007233;-0.002871
0.992500;-5.413711;2.559310;7.880473;0.024575;-0.006312;0.008065
0.995000;-5.431986;2.576232;7.861756;0.032918;0.002116;0.004858
0.997500;-5.437432;2.583524;7.867208;0.038626;-0.005455;0.029856
1.000000;-5.431754;2.607260;7.869393;0.041918;-0.022087;0.018746
1.002500;-5.431768;2.609313;7.854679;0.032812;-0.050268;0.007553
1.005000;-5.424341;2.624068;7.843941;0.038956;-0.018907;0.013325
1.007500;-5.424341;2.624068;7.843941;0.041218;-0.032387;0.001170
1.010000;-5.424254;2.634975;7.849560;0.034583;-0.006512;0.028744
1.012500;-5.418669;2.645917;7.849791;0.034826;-0.027305;0.014328
1.015000;-5.427759;2.664645;7.827633;0.049374;-0.027217;0.008829
1.017500;-5.431337;2.675529;7.836845;0.038076;-0.016773;0.008970
1.020000;-5.436793;2.682904;7.836774;0.030788;-0.027777;-0.042417
1.022500;-5.436768;2.688510;7.829457;0.035229;-0.041761;-0.005482
1.025000;-5.434928;2.686524;7.838692;0.037261;-0.018756;-0.001965
1.027500;-5.431241;2.690238;7.833291;0.028718;-0.019995;0.014411
1.030000;-5.416638;2.679175;7.829872;0.025668;-0.034618;0.009897
1.032500;-5.412947;2.682862;7.826312;0.023059;-0.041685;-0.016363
1.035000;-5.405539;2.690014;7.833921;0.047563;-0.062665;-0.006840
1.037500;-5.394331;2.715451;7.841780;0.041258;-0.042893;0.003200
1.040000;-5.379643;2.711439;7.856837;0.041563;-0.035394;-0.013089
1.042500;-5.364924;2.714919;7.860912;0.029091;-0.041765;-0.007673
1.045000;-5.361027;2.747912;7.857608;0.031083;-0.043914;-0.002258
1.047500;-5.360944;2.762731;7.846689;0.033453;-0.053165;-0.018737
1.050000;-5.364539;2.773754;7.846695;0.023462;-0.041999;-0.088428
1.052500;-5.360853;2.769727;7.868847;0.000376;-0.056450;-0.012140
1.055000;-5.360999;2.753490;7.852132;0.005904;-0.063542;-0.034049
1.057500;-5.377672;2.727742;7.868073;0.018204;-0.045739;-0.030603
1.060000;-5.383318;2.707614;7.869603;0.022253;-0.031678;0.028470
1.062500;-5.390629;2.715170;7.858440;0.019316;0.023351;-0.028759
1.065000;-5.405458;2.697092;7.850555;0.021066;-0.045840;-0.019683
1.067500;-5.405368;2.709914;7.850667;0.014971;-0.015484;-0.020434
1.070000;-5.409108;2.706642;7.826610;0.029031;-0.048078;-0.004454
1.072500;-5.399896;2.706285;7.845247;0.023111;-0.047943;-0.018625
1.075000;-5.401716;2.710048;7.839710;0.013690;-0.044917;-0.009838
1.077500;-5.401854;2.685987;7.856073;0.004561;-0.040656;-0.018488
1.080000;-5.414807;2.671446;7.855629;0.017044;-0.043683;-0.026185
1.082500;-5.409364;2.660297;7.863033;0.000554;-0.054180;-0.027343
1.085000;-5.414968;2.647579;7.859103;0.023174;-0.056229;-0.026329
1.087500;-5.431543;2.642338;7.851286;0.013110;-0.050892;-0.038242
1.090000;-5.424232;2.640608;7.840403;0.018828;-0.068917;-0.015539
1.092500;-5.431643;2.631541;7.838301;0.025468;-0.043536;-0.038191
1.095000;-5.444439;2.638952;7.839891;0.017761;-0.032329;-0.009679
1.097500;-5.442613;2.637077;7.841762;0.020810;-0.030250;-0.007482
1.100000;-5.451879;2.628192;7.828568;0.020847;-0.041733;-0.010874
1.102500;-5.459175;2.635610;7.826611;0.020978;-0.056310;-0.018672
1.105000;-5.461020;2.633767;7.828391;0.010399;-0.039753;-0.002095
1.107500;-5.483075;2.626411;7.842516;-0.003944;-0.030323;-0.005221
1.110000;-5.479454;2.613226;7.864588;0.012512;-0.043875;-0.006501
1.112500;-5.479445;2.620912;7.840717;0.009181;-0.024157;0.008997
1.115000;-5.479510;2.613696;7.833288;0.010712;-0.037471;-0.019520
1.117500;-5.483050;2.632017;7.835200;0.014642;-0.030257;-0.007455
1.120000;-5.494061;2.632085;7.836771;0.004274;-0.037641;-0.004231
1.122500;-5.493981;2.646932;7.824011;0.004477;-0.037544;-0.014056
1.125000;-5.477382;2.661663;7.809815;0.021202;-0.031106;-0.026043
1.127500;-5.475514;2.661370;7.828272;-0.013987;-0.049064;-0.018505
1.130000;-5.479243;2.650246;7.839132;0.016920;-0.045832;-0.019640
1.132500;-5.464527;2.653754;7.841366;0.018669;-0.048094;-0.003306
1.135000;-5.457296;2.639120;7.835894;0.010573;-0.035474;-0.010782
1.137500;-5.449904;2.642526;7.848994;0.018219;-0.036828;0.020824
1.140000;-5.442538;2.646153;7.847365;0.022977;-0.033328;-0.012980
1.142500;-5.442384;2.670075;7.840209;0.020699;-0.048118;-0.001140
1.145000;-5.457213;2.650055;7.839673;0.014831;-0.033302;-0.017321
1.147500;-5.449998;2.631674;7.839692;0.014863;-0.036409;-0.020623
1.150000;-5.437146;2.627677;7.854705;0.002434;-0.035426;-0.017307
1.152500;-5.450177;2.598261;7.868863;-0.002406;-0.025826;-0.034636
1.155000;-5.461159;2.601965;7.872307;0.012763;-0.026991;-0.019412
1.157500;-5.453882;2.598570;7.850361;0.016591;-0.015641;-0.002932
1.160000;-5.439202;2.598497;7.847039;0.016577;-0.033432;-0.004218
1.162500;-5.420862;2.594618;7.851139;0.017661;-0.042810;-0.008690
1.165000;-5.389730;2.579472;7.866505;0.029698;-0.057587;0.005301
1.167500;-5.358532;2.571542;7.889300;0.022509;-0.055489;0.003157
1.170000;-5.336504;2.563609;7.917394;0.019054;-0.047795;-0.032762
1.172500;-5.314528;2.552233;7.930726;0.055496;-0.033399;0.001121
1.175000;-5.292504;2.548212;7.942281;0.027657;-0.019883;0.003522
1.177500;-5.259213;2.576899;7.965441;0.039055;-0.038658;-0.001095
1.180000;-5.258975;2.609814;7.969412;0.053985;-0.010119;-0.023752
1.182500;-5.253308;2.639460;7.944027;0.066036;-0.008197;-0.005225
1.185000;-5.251285;2.665032;7.947979;0.076360;0.002285;-0.004057
1.187500;-5.254757;2.694426;7.944463;0.036158;0.031430;0.002904
1.190000;-5.267638;2.694787;7.927578;0.067243;0.030560;-0.007007
1.192500;-5.262185;2.685498;7.933156;0.051701;0.056628;-0.000133
1.195000;-5.276890;2.679965;7.943795;0.055120;0.034861;-0.020015
1.197500;-5.269692;2.657838;7.949306;0.047994;0.053734;-0.024149
1.200000;-5.280825;2.639534;7.954399;0.055130;0.045359;-0.022069
1.202500;-5.273618;2.621209;7.950737;0.064495;0.069504;-0.026192
1.205000;-5.277392;2.606587;7.950518;0.072398;0.060981;-0.009932
1.207500;-5.268232;2.602789;7.954394;0.078802;0.091458;-0.019440
1.210000;-5.246041;2.624521;7.958809;0.084182;0.097860;-0.030309
1.212500;-5.211038;2.642590;7.956142;0.078191;0.095842;-0.040149
1.215000;-5.181491;2.666090;7.960752;0.101888;0.117856;-0.037806
1.217500;-5.145051;2.627360;7.957634;0.093608;0.141896;-0.036426
1.220000;-5.079194;2.584131;7.993868;0.072220;0.188039;-0.048961
1.222500;-4.996809;2.544586;8.019491;0.112106;0.143040;-0.043013
1.225000;-4.921839;2.484377;8.083424;0.129446;0.156649;-0.038544
1.227500;-4.848377;2.467979;8.158742;0.143185;0.182014;-0.057958
1.230000;-4.784397;2.415413;8.207739;0.142052;0.200833;-0.055565
1.232500;-4.720366;2.372117;8.249452;0.174003;0.216658;-0.059843
1.235000;-4.646821;2.372480;8.306503;0.182438;0.246091;-0.069384
1.237500;-4.573011;2.407479;8.374906;0.203144;0.272345;-0.072459
1.240000;-4.482433;2.477136;8.444018;0.227878;0.296442;-0.069036
1.242500;-4.393717;2.539261;8.527751;0.285991;0.336555;-0.087351
1.245000;-4.334682;2.567365;8.575477;0.290615;0.380770;-0.109822
1.247500;-4.314339;2.569830;8.644127;0.296057;0.468827;-0.117619
1.250000;-4.319817;2.552177;8.724859;0.334401;0.508840;-0.128196
1.252500;-4.310410;2.567643;8.787828;0.380446;0.565849;-0.161539
1.255000;-4.317456;2.588499;8.867011;0.423316;0.632696;-0.133659
1.257500;-4.278558;2.627935;8.903291;0.465352;0.694960;-0.171312
1.260000;-4.246718;2.701905;8.961789;0.484731;0.782253;-0.204279
1.262500;-4.191132;2.745643;9.068486;0.530514;0.847477;-0.222276
1.265000;-4.084133;2.769455;9.253613;0.586635;0.944165;-0.242148
1.267500;-3.940765;2.726039;9.503503;0.643885;1.026335;-0.274169
1.270000;-3.822304;2.798382;9.744568;0.674756;1.160873;-0.314317
1.272500;-3.717950;3.005634;9.793103;0.721599;1.289306;-0.373162
1.275000;-3.544279;3.151999;9.831773;0.745425;1.482372;-0.411596
1.277500;-3.436980;3.246990;9.912562;0.805900;1.563426;-0.440400
1.280000;-3.473241;3.288112;10.000406;0.829797;1.705378;-0.490222
1.282500;-3.555470;3.322473;10.076014;0.855637;1.869238;-0.531070
1.285000;-3.617193;3.418044;10.090047;0.902368;2.043707;-0.582795
1.287500;-3.682401;3.547003;10.078501;0.921265;2.211784;-0.631251
1.290000;-3.721835;3.690640;10.051144;0.952812;2.403048;-0.692593
1.292500;-3.772130;3.844728;10.065959;0.948258;2.564912;-0.753069
1.295000;-3.829441;4.031049;10.134277;0.946082;2.724858;-0.828860
1.297500;-3.914232;4.224882;10.205666;0.921659;2.905324;-0.868357
1.300000;-4.048924;4.369580;10.282771;0.915621;3.066961;-0.903716
1.302500;-4.208247;4.420041;10.305065;0.874196;3.203824;-0.981763
1.305000;-4.349309;4.453690;10.338711;0.838430;3.338335;-1.033661
1.307500;-4.545216;4.516933;10.384151;0.804572;3.471707;-1.074665
1.310000;-4.761685;4.533005;10.410268;0.756220;3.586201;-1.115812
1.312500;-4.979288;4.647948;10.440888;0.722637;3.693533;-1.170206
1.315000;-5.202413;4.766934;10.449311;0.673407;3.785017;-1.214909
1.317500;-5.410416;4.948097;10.456798;0.624940;3.877926;-1.296723
1.320000;-5.634531;5.191901;10.449695;0.552239;3.971468;-1.344657
1.322500;-5.971503;5.560506;10.490603;0.496180;4.026371;-1.395260
1.325000;-6.355675;5.991031;10.582438;0.423345;4.139138;-1.474666
1.327500;-6.725955;6.319461;10.633231;0.347452;4.164589;-1.515694
1.330000;-7.050502;6.598431;10.780472;0.292780;4.182612;-1.540486
1.332500;-7.388104;6.821043;11.028182;0.230073;4.195571;-1.580569
1.335000;-7.827982;7.067265;11.468759;0.187744;4.195954;-1.607743
1.337500;-8.287431;7.339490;12.141085;0.149129;4.165846;-1.615629
1.340000;-8.819837;7.608375;13.076739;0.126653;4.131494;-1.606138
1.342500;-9.277600;7.998384;14.201240;0.088583;4.036326;-1.589690
1.345000;-9.403925;8.547917;15.254242;0.061640;3.887581;-1.564153
1.347500;-9.074697;9.170764;16.173611;-0.000057;3.673362;-1.507701
1.350000;-8.361872;10.082120;16.942851;-0.077066;3.474602;-1.445760
1.352500;-7.444230;10.922708;17.552643;-0.154827;3.253452;-1.353518
1.355000;-6.205611;11.524232;17.921540;-0.273487;3.047094;-1.295894
1.357500;-4.462934;11.831109;17.989122;-0.349334;2.821777;-1.133826
1.360000;-2.715482;11.810320;17.914071;-0.526003;2.608535;-1.050892
1.362500;-1.101453;11.539261;18.109791;-0.636868;2.407651;-0.920973
1.365000;0.829839;11.134435;18.619666;-0.730504;2.218347;-0.792093
1.367500;2.940655;11.088496;19.531077;-0.757904;2.018219;-0.610218
1.370000;4.041416;10.212040;20.434464;-0.747701;1.797050;-0.380163
1.372500;4.715474;9.567142;21.038415;-0.673157;1.560372;-0.152617
1.375000;5.067201;8.638949;21.166155;-0.524012;1.374400;0.047087
1.377500;5.414343;7.902838;21.070788;-0.330717;1.192913;0.323042
1.380000;6.203610;7.947561;20.825430;-0.145100;0.991309;0.498051
1.382500;6.855609;8.213188;20.952379;0.062834;0.788490;0.705659
1.385000;7.437474;8.422419;21.091851;0.192257;0.580730;0.868721
1.387500;8.125434;8.389379;20.957497;0.241891;0.347960;1.095088
1.390000;9.010896;8.116498;20.336151;0.246974;0.133386;1.155976
1.392500;9.971716;7.671360;19.431617;0.244055;-0.061170;1.195333
1.395000;10.926223;7.122471;18.485528;0.240539;-0.231368;1.207716
1.397500;11.650845;6.478125;17.680274;0.177377;-0.336603;1.109740
1.400000;12.033913;5.748297;17.145768;0.139696;-0.422549;1.193129
1.402500;12.060942;4.943057;16.951712;0.107232;-0.521776;1.161875
1.405000;11.706682;4.161640;16.969442;0.068261;-0.596511;1.103686
1.407500;11.125947;3.512071;17.117150;0.077568;-0.725632;1.058958
1.410000;10.436370;3.044523;17.282156;0.103634;-0.840035;1.014300
1.412500;9.648975;2.764642;17.448208;0.132827;-0.979646;0.979135
1.415000;8.851836;2.664278;17.621084;0.203073;-1.113084;0.963504
1.417500;8.095831;2.677569;17.766484;0.198886;-1.277765;0.911680
1.420000;7.375372;2.787773;17.904384;0.252984;-1.447837;0.886878
1.422500;6.673373;2.928008;17.984072;0.256775;-1.607527;0.856856
1.425000;6.112605;3.075830;17.967868;0.268385;-1.777931;0.846310
1.427500;5.593708;3.187452;17.898984;0.268736;-1.960868;0.828026
1.430000;5.124321;3.306880;17.770621;0.262796;-2.085333;0.821294
1.432500;4.737409;3.434489;17.539400;0.211623;-2.279988;0.802996
1.435000;4.425528;3.551807;17.219712;0.218941;-2.396190;0.801748
1.437500;4.126174;3.625163;16.892590;0.160767;-2.521706;0.774402
1.440000;3.817613;3.693021;16.570718;0.107200;-2.640184;0.776584
1.442500;3.496018;3.735374;16.246465;0.070413;-2.732285;0.763743
1.445000;3.141432;3.785315;15.923308;0.052726;-2.836106;0.775824
1.447500;2.759486;3.861168;15.597858;0.025156;-2.911500;0.770777
1.450000;2.364550;3.920840;15.259061;-0.011834;-3.008959;0.770982
1.452500;1.914786;4.004141;14.963310;-0.069578;-3.055304;0.787074
1.455000;1.443118;4.102094;14.680036;-0.067211;-3.132675;0.780843
1.457500;0.947660;4.213187;14.388924;-0.114387;-3.194552;0.783643
1.460000;0.472256;4.302014;14.105479;-0.143541;-3.300582;0.807743
1.462500;0.013284;4.379817;13.814979;-0.169090;-3.316359;0.812080
1.465000;-0.419935;4.464723;13.525173;-0.191351;-3.340961;0.859952
1.467500;-0.847666;4.545863;13.239152;-0.204662;-3.374558;0.868420
1.470000;-1.269993;4.616185;12.938440;-0.236597;-3.404062;0.881351
1.472500;-1.664943;4.664342;12.634530;-0.276922;-3.428426;0.900909
1.475000;-2.058143;4.709317;12.297491;-0.300818;-3.431866;0.925017
1.477500;-2.438668;4.724625;11.977081;-0.305121;-3.456136;0.943397
1.480000;-2.831843;4.773264;11.640074;-0.324786;-3.443816;0.963298
1.482500;-3.217973;4.777795;11.308386;-0.322417;-3.453718;1.011283
1.485000;-3.615209;4.775428;10.954270;-0.343149;-3.441389;1.030115
1.487500;-3.994139;4.769458;10.585842;-0.345365;-3.436352;1.048816
1.490000;-4.366014;4.730923;10.186007;-0.351556;-3.393575;1.061401
1.492500;-4.754333;4.699638;9.800559;-0.339527;-3.354067;1.091360
1.495000;-5.106030;4.659124;9.399361;-0.333470;-3.322827;1.108149
1.497500;-5.441333;4.604033;8.983711;-0.349088;-3.270742;1.128497
1.500000;-5.776855;4.529429;8.525538;-0.293270;-3.213042;1.127989
1.502500;-6.083674;4.386485;7.966211;-0.312550;-3.138254;1.175903
1.505000;-6.314009;4.170486;7.349217;-0.292859;-3.076457;1.170116
1.507500;-6.482679;3.861328;6.679541;-0.279293;-2.971234;1.213941
1.510000;-6.598366;3.515073;6.010850;-0.211437;-2.873813;1.213890
1.512500;-6.691832;3.184475;5.385191;-0.170725;-2.754694;1.235960
1.515000;-6.805170;2.897904;4.766785;-0.097326;-2.617321;1.222118
1.517500;-6.943527;2.695067;4.198199;-0.040778;-2.447814;1.237015
1.520000;-7.237405;2.543496;3.718293;0.017235;-2.291664;1.233223
1.522500;-7.593237;2.454526;3.252132;0.092182;-2.115386;1.212135
1.525000;-8.042406;2.402728;2.802407;0.138473;-1.926546;1.186901
1.527500;-8.482244;2.392252;2.279613;0.195272;-1.742847;1.152839
1.530000;-8.910868;2.407159;1.768361;0.214453;-1.557464;1.149438
1.532500;-9.392543;2.444233;1.274408;0.230222;-1.391582;1.108737
1.535000;-9.874308;2.447148;0.859336;0.231522;-1.225713;1.068085
1.537500;-10.438221;2.477936;0.586106;0.224904;-1.018866;1.016988
1.540000;-11.021893;2.547925;0.397428;0.239492;-0.834164;0.988497
1.542500;-11.867643;2.620357;0.436173;0.241990;-0.633576;0.951525
1.545000;-12.830403;2.740193;0.555308;0.224712;-0.480226;0.926102
1.547500;-13.848512;2.820129;0.678263;0.230107;-0.325733;0.898473
1.550000;-14.949040;2.926318;0.806781;0.223955;-0.180817;0.884964
1.552500;-16.007029;3.087698;0.896310;0.191332;-0.057818;0.855986
1.555000;-16.899496;3.330469;0.841461;0.145270;0.015849;0.827542
1.557500;-17.735171;3.542719;0.835620;0.104232;0.114598;0.804811
1.560000;-18.490386;3.698735;0.869944;0.009204;0.181643;0.797161
1.562500;-19.132208;3.791398;0.912036;-0.049973;0.242439;0.792619
1.565000;-19.814533;3.827198;1.103634;-0.092669;0.297091;0.783624
1.567500;-20.429552;3.770628;1.308983;-0.148227;0.302340;0.789425
1.570000;-21.019574;3.626632;1.466323;-0.187640;0.320045;0.808438
1.572500;-21.523767;3.439140;1.544383;-0.190598;0.330178;0.855642
1.575000;-21.881739;3.213110;1.423162;-0.182697;0.332239;0.867802
1.577500;-22.080580;2.936279;1.180209;-0.191867;0.311958;0.903762
1.580000;-22.092023;2.707043;0.835475;-0.188462;0.302214;0.928839
1.582500;-21.877463;2.528508;0.404668;-0.158163;0.299851;0.947316
1.585000;-21.593296;2.329327;-0.031970;-0.165228;0.301432;0.979024
1.587500;-21.169252;2.184156;-0.483118;-0.149494;0.308328;1.004133
1.590000;-20.701519;1.985456;-0.931809;-0.133175;0.349060;0.996883
1.592500;-20.130689;1.831927;-1.395991;-0.137312;0.365719;0.980661
1.595000;-19.585404;1.700575;-1.858770;-0.116377;0.403542;0.949322
1.597500;-19.102491;1.567438;-2.289954;-0.122270;0.448606;0.922511
1.600000;-18.649030;1.415826;-2.694401;-0.110045;0.513948;0.864238
1.602500;-18.287067;1.283892;-3.016228;-0.116898;0.567454;0.836449
1.605000;-17.952757;1.118260;-3.274578;-0.124646;0.638859;0.801235
1.607500;-17.658246;1.031438;-3.512976;-0.131370;0.722289;0.718116
1.610000;-17.442513;0.942008;-3.655744;-0.132667;0.784432;0.674047
1.612500;-17.284637;0.954255;-3.705155;-0.120355;0.863425;0.626824
1.615000;-16.892351;0.889770;-3.777080;-0.136064;0.907753;0.578189
1.617500;-16.811378;0.895177;-3.694024;-0.145941;0.969218;0.504661
1.620000;-16.596710;0.851682;-3.600734;-0.136901;1.037726;0.460610
1.622500;-16.369114;0.822950;-3.521731;-0.137613;1.107542;0.388222
1.625000;-16.183556;0.787211;-3.318612;-0.136591;1.156308;0.330884
1.627500;-15.988826;0.753390;-3.126298;-0.138758;1.207099;0.279030
1.630000;-15.839951;0.709927;-2.876273;-0.125530;1.238052;0.228022
1.632500;-15.646701;0.717753;-2.650495;-0.113135;1.273249;0.169397
1.635000;-15.470103;0.711291;-2.439979;-0.089311;1.313767;0.105352
1.637500;-15.241622;0.770183;-2.218421;-0.057539;1.340499;0.058561
1.640000;-14.985470;0.858750;-2.036436;-0.067281;1.372717;-0.024082
1.642500;-14.744404;0.906173;-1.912257;-0.037823;1.373131;-0.060235
1.645000;-14.442803;0.945714;-1.784815;-0.026453;1.394673;-0.120126
1.647500;-14.119419;0.965798;-1.715927;-0.005672;1.405851;-0.189971
1.650000;-13.772239;0.968803;-1.620821;0.032697;1.424459;-0.265238
1.652500;-13.451067;0.926101;-1.517541;0.054198;1.431341;-0.323107
1.655000;-13.169781;0.941619;-1.365026;0.130284;1.454023;-0.375510
1.657500;-12.964927;1.049144;-1.197030;0.169981;1.488442;-0.456076
1.660000;-12.853149;1.214939;-0.953487;0.217160;1.492682;-0.548997
1.662500;-12.836283;1.470038;-0.748339;0.272567;1.525103;-0.630734
1.665000;-12.888907;1.758385;-0.522519;0.318748;1.506258;-0.716273
1.667500;-13.036896;2.050618;-0.258501;0.370878;1.498818;-0.786412
1.670000;-13.216140;2.322174;0.057969;0.415459;1.481790;-0.840255
1.672500;-13.469012;2.572722;0.350352;0.462172;1.480508;-0.896092
1.675000;-13.613321;2.874551;0.583240;0.531341;1.414259;-0.946185
1.677500;-13.856854;3.160539;0.828283;0.578914;1.368913;-0.994877
1.680000;-13.931162;3.519869;0.975002;0.631673;1.318756;-0.989133
1.682500;-13.954230;3.878191;1.038271;0.678953;1.255348;-1.022808
1.685000;-13.817694;4.251569;0.985909;0.709385;1.208376;-1.036651
1.687500;-13.556711;4.592216;0.847943;0.728327;1.146634;-1.047361
1.690000;-13.208181;4.872893;0.628755;0.749365;1.091209;-1.064549
1.692500;-12.766179;5.150169;0.340026;0.768095;1.028296;-1.070916
1.695000;-12.326182;5.392022;0.093294;0.766257;1.011410;-1.076716
1.697500;-11.807810;5.571989;-0.223854;0.768491;0.974654;-1.087099
1.700000;-11.352145;5.704488;-0.517172;0.748946;0.903287;-1.094497
1.702500;-10.907686;5.817350;-0.838553;0.742463;0.955204;-1.073303
1.705000;-10.481864;5.893904;-1.171753;0.732845;0.937029;-1.058300
1.707500;-10.070971;5.947409;-1.547867;0.737680;0.951339;-1.042972
1.710000;-9.704225;5.990392;-1.930682;0.744733;0.959473;-1.036432
1.712500;-9.337421;6.036761;-2.295052;0.776643;0.983916;-0.980682
1.715000;-8.952323;6.091264;-2.723350;0.782001;1.014666;-0.935708
1.717500;-8.544503;6.229003;-3.095135;0.800794;1.034972;-0.889829
1.720000;-8.193903;6.325221;-3.476048;0.819445;1.109620;-0.832422
1.722500;-7.840023;6.360684;-3.838989;0.851439;1.140393;-0.780961
1.725000;-7.458413;6.421441;-4.193666;0.878709;1.189633;-0.694386
1.727500;-7.084455;6.440243;-4.556256;0.916233;1.290154;-0.602900
1.730000;-6.657754;6.390976;-4.929180;0.961461;1.298396;-0.497146
1.732500;-6.216327;6.345133;-5.294348;0.981256;1.363231;-0.402716
1.735000;-5.750863;6.332549;-5.691783;1.043886;1.450917;-0.281982
1.737500;-5.217756;6.282961;-6.102603;1.113480;1.517585;-0.153857
1.740000;-4.602296;6.203789;-6.541113;1.176251;1.598057;-0.048483
1.742500;-3.967701;6.463341;-6.854720;1.225478;1.654715;0.028170
1.745000;-4.843044;13.688456;-1.452346;1.117307;1.675861;0.090511
1.747500;-7.389744;22.742505;0.687567;0.130311;1.341255;-0.129271
1.750000;-10.783387;18.197007;1.493156;-1.167475;1.169873;-0.740778
1.752500;-13.793797;7.943835;8.622827;-2.296787;1.044929;-1.569820
1.755000;-17.836234;-2.080145;17.658791;-3.234002;0.687890;-2.316719
1.757500;-23.840387;-11.349174;23.377277;-3.472182;0.109454;-2.690121
1.760000;-24.525049;-18.211901;24.610762;-2.941883;-0.643656;-2.749558
1.762500;-20.329409;-21.022678;22.793268;-2.060385;-1.384832;-2.580807
1.765000;-16.882626;-18.978630;20.540507;-0.922313;-1.905939;-2.292983
1.767500;-15.656053;-14.221531;18.558395;0.175902;-2.210549;-1.948669
1.770000;-14.741595;-7.808131;16.251375;0.939922;-2.471354;-1.677692
1.772500;-13.073176;-0.742645;13.165671;1.276336;-2.626727;-1.518260
1.775000;-10.524144;5.883338;9.455232;1.208595;-2.658217;-1.418592
1.777500;-7.437085;10.857936;6.104759;0.768815;-2.624153;-1.360392
1.780000;-5.916187;12.401583;4.697072;0.194001;-2.415891;-1.365030
1.782500;-6.143312;10.833102;4.963439;-0.348166;-2.193559;-1.302732
1.785000;-7.587744;6.348420;7.226094;-0.727831;-1.973006;-1.236402
1.787500;-9.843622;0.070091;10.313309;-0.835991;-1.854143;-1.042375
1.790000;-11.025833;-5.097544;12.037047;-0.700551;-1.803064;-0.884133
1.792500;-10.129834;-6.965439;12.219828;-0.455223;-1.829953;-0.762399
1.795000;-8.127584;-5.298897;11.511844;-0.225240;-1.809875;-0.600098
1.797500;-6.390888;-1.900546;10.548874;-0.126758;-1.710067;-0.494963
1.800000;-5.358013;1.131394;9.611487;-0.156307;-1.585355;-0.378029
1.802500;-4.914554;2.516022;8.901422;-0.308411;-1.413166;-0.294472
1.805000;-5.079613;2.349109;8.639987;-0.431252;-1.244706;-0.212558
1.807500;-5.390717;1.361541;8.942416;-0.526035;-1.072691;-0.141290
1.810000;-5.647470;0.507727;9.335711;-0.532390;-0.945013;-0.115542
1.812500;-5.635668;0.301121;9.545982;-0.469540;-0.825954;-0.065254
1.815000;-5.377472;0.754646;9.456789;-0.406039;-0.734786;-0.069012
1.817500;-5.044178;1.496146;9.180416;-0.397844;-0.625120;0.040950
1.820000;-4.963208;2.139980;8.838078;-0.342708;-0.510197;0.063637
1.822500;-5.118674;2.567201;8.534100;-0.331220;-0.406928;0.097350
1.825000;-5.479321;2.790718;8.245426;-0.342379;-0.347483;0.117668
1.827500;-5.889913;2.951893;7.988133;-0.310687;-0.279161;0.101989
1.830000;-6.150908;3.226477;7.781525;-0.287418;-0.242410;0.096831
1.832500;-6.211386;3.540479;7.644631;-0.236698;-0.193727;0.054571
1.835000;-6.090394;3.806746;7.535728;-0.186092;-0.159714;0.009950
1.837500;-5.935143;3.963479;7.504064;-0.148168;-0.131038;-0.025937
1.840000;-5.839526;3.990453;7.484551;-0.103967;-0.110560;-0.074965
1.842500;-5.831060;3.895485;7.460007;-0.085634;-0.108952;-0.125159
1.845000;-5.905091;3.823549;7.411536;-0.057004;-0.096881;-0.170893
1.847500;-5.982260;3.849967;7.280973;0.004029;-0.082472;-0.235270
1.850000;-6.088568;3.913467;7.137121;0.001861;-0.098791;-0.279085
1.852500;-6.158345;3.939407;7.034355;0.020147;-0.114054;-0.318574
1.855000;-6.252748;3.830350;7.029257;0.039159;-0.103205;-0.347911
1.857500;-6.311185;3.595368;7.093934;0.045544;-0.101837;-0.372918
1.860000;-6.331496;3.293807;7.179231;0.031334;-0.090006;-0.402105
1.862500;-6.340517;3.040270;7.232075;0.029238;-0.087739;-0.416170
1.865000;-6.341901;2.842393;7.234026;0.020862;-0.064680;-0.419100
1.867500;-6.376091;2.675777;7.246487;0.038101;-0.039557;-0.412262
1.870000;-6.461485;2.535087;7.268959;0.026404;-0.006206;-0.396526
1.872500;-6.535723;2.424160;7.255134;0.009988;0.031520;-0.401474
1.875000;-6.514302;2.337907;7.253080;-0.054473;0.037361;-0.373931
1.877500;-6.452388;2.262071;7.266841;-0.013785;0.061296;-0.350853
1.880000;-6.456332;2.196502;7.365613;-0.014014;0.112501;-0.338273
1.882500;-6.469475;2.135063;7.438416;-0.018207;0.152266;-0.334535
1.885000;-6.430868;2.124574;7.505563;-0.025424;0.174713;-0.278629
1.887500;-6.360715;2.167236;7.553687;-0.032087;0.229848;-0.246400
1.890000;-6.323473;2.240100;7.560752;-0.039479;0.273608;-0.228481
1.892500;-6.286042;2.342410;7.558867;-0.041968;0.306760;-0.196514
1.895000;-6.270311;2.504216;7.510926;-0.034885;0.336909;-0.176625
1.897500;-6.227048;2.673578;7.432424;-0.040518;0.390393;-0.190281
1.900000;-6.157491;2.946368;7.283644;-0.036109;0.412283;-0.186889
1.902500;-6.282810;2.908816;7.169761;-0.030185;0.407968;-0.172724
1.905000;-6.416400;3.003392;7.045760;-0.033183;0.429873;-0.165934
1.907500;-6.564745;3.090907;6.912129;-0.051133;0.443650;-0.186465
1.910000;-6.644956;3.195483;6.824511;-0.037134;0.441830;-0.210547
1.912500;-6.684709;3.314638;6.719600;-0.038997;0.395793;-0.216527
1.915000;-6.720924;3.407730;6.640331;-0.053196;0.410432;-0.219627
1.917500;-6.709721;3.444847;6.602257;-0.055369;0.400910;-0.212100
1.920000;-6.702087;3.498593;6.556873;-0.073192;0.385518;-0.248247
1.922500;-6.652408;3.534068;6.484746;-0.057677;0.332198;-0.255434
1.925000;-6.791315;3.359289;6.489037;-0.070879;0.316711;-0.275117
1.927500;-6.916551;3.324931;6.406486;-0.069386;0.289778;-0.301561
1.930000;-6.953831;3.264024;6.335077;-0.083090;0.251937;-0.290991
1.932500;-6.977945;3.246909;6.268049;-0.130027;0.208123;-0.318606
1.935000;-7.018867;3.455528;6.184131;-0.098752;0.160119;-0.329094
1.937500;-7.052015;3.186930;6.155234;-0.086890;0.104623;-0.324169
1.940000;-7.185197;3.035500;6.187487;-0.119690;0.118349;-0.338037
1.942500;-7.231654;2.959135;6.174641;-0.102633;0.010459;-0.328304
1.945000;-7.195143;2.929508;6.175285;-0.117914;-0.032351;-0.344000
1.947500;-7.085130;2.918056;6.144748;-0.138283;-0.073074;-0.362953
1.950000;-7.141427;2.717363;6.242915;-0.149465;-0.112113;-0.331623
1.952500;-7.174905;2.649520;6.265447;-0.139213;-0.160171;-0.337597
1.955000;-7.101432;2.646606;6.296690;-0.152395;-0.206673;-0.299889
1.957500;-7.087278;2.565608;6.314757;-0.156304;-0.226376;-0.318617
1.960000;-6.975553;2.508631;6.386986;-0.149306;-0.257794;-0.316798
1.962500;-6.890369;2.311511;6.534696;-0.151235;-0.259155;-0.284025
1.965000;-6.817559;2.180333;6.690033;-0.139354;-0.265524;-0.269914
1.967500;-6.714968;2.093972;6.894360;-0.142262;-0.271106;-0.233954
1.970000;-6.637536;2.096391;7.056480;-0.135003;-0.237542;-0.235814
1.972500;-6.537075;1.975659;7.232841;-0.120383;-0.245145;-0.203184
1.975000;-6.512867;1.964837;7.452461;-0.116457;-0.197050;-0.190678
1.977500;-6.295232;2.041810;7.696003;-0.108257;-0.170888;-0.187222
1.980000;-6.121641;2.119029;7.947672;-0.103476;-0.093658;-0.160281
1.982500;-5.990322;2.202830;8.150483;-0.086990;-0.016211;-0.151910
1.985000;-5.822225;2.283872;8.394683;-0.081778;0.070667;-0.146689
1.987500;-5.678256;2.347909;8.564492;-0.066889;0.197531;-0.159597
1.990000;-5.512126;2.420361;8.771744;-0.006893;0.299293;-0.164178
1.992500;-5.390258;2.475487;8.937250;-0.031518;0.418533;-0.157413
1.995000;-5.236752;2.586875;9.120589;-0.012072;0.582229;-0.187412
1.997500;-5.074276;2.672788;9.287357;-0.008385;0.737359;-0.203268
2.000000;-4.924764;2.742300;9.455508;0.003884;0.911540;-0.236391
2.002500;-4.762967;2.742732;9.581018;0.048877;1.095124;-0.260748
2.005000;-4.630278;2.776114;9.724508;0.054934;1.295440;-0.291373
2.007500;-4.489943;2.853448;9.864880;0.080434;1.527082;-0.309724
2.010000;-4.297955;2.974791;9.973756;0.135469;1.740312;-0.365479
2.012500;-4.036034;2.859251;10.080478;0.138531;1.973190;-0.409900
2.015000;-3.883458;2.854295;10.203874;0.186830;2.254182;-0.436480
2.017500;-3.613842;3.001621;10.491649;0.220807;2.496428;-0.465706
2.020000;-3.258305;2.933848;10.415110;0.243804;2.792221;-0.521531
2.022500;-3.015192;2.765985;10.478571;0.272600;3.086893;-0.562054
2.025000;-2.817473;2.926132;10.562142;0.303039;3.395277;-0.612362
2.027500;-2.398105;3.072895;10.437455;0.315732;3.718065;-0.652678
2.030000;-2.014452;2.815622;10.398650;0.333381;4.052585;-0.706917
2.032500;-1.738466;2.907025;10.380442;0.368302;4.401418;-0.722960
2.035000;-1.154173;3.014131;10.242900;0.365083;4.763200;-0.795564
2.037500;-0.914190;2.736864;10.029147;0.369108;5.134128;-0.830781
2.040000;-0.874457;2.668290;9.937470;0.387059;5.506330;-0.878062
2.042500;-0.735800;2.600620;9.730388;0.375966;5.864705;-0.916702
2.045000;-0.628090;2.290374;9.590436;0.383628;6.282020;-0.976486
2.047500;-0.539450;2.407434;9.431583;0.389486;6.662548;-1.025900
2.050000;-0.465585;2.536992;9.180408;0.432571;7.043215;-1.081959
2.052500;-0.435114;2.294476;8.720588;0.440064;7.416357;-1.129126
2.055000;-0.617278;2.056934;8.413936;0.466595;7.809179;-1.142268
2.057500;-1.204501;1.914373;8.107343;0.517228;8.154120;-1.167950
2.060000;-2.097098;1.711824;7.695137;0.538635;8.523897;-1.167008
2.062500;-2.545400;1.194737;7.486339;0.591574;8.889627;-1.176001
2.065000;-2.813136;0.802486;7.159684;0.666474;9.221421;-1.146216
2.067500;-2.765742;0.661195;6.537270;0.740364;9.573858;-1.104344
2.070000;-3.037147;1.091773;6.073958;0.830643;9.933826;-1.070217
2.072500;-3.802977;1.405495;5.737426;0.876888;10.310700;-1.045471
2.075000;-4.831686;1.382968;5.490977;0.927414;10.663804;-0.937895
2.077500;-5.850467;1.146414;5.462054;0.998640;11.028745;-0.849821
2.080000;-6.792007;0.919680;5.468258;1.133135;11.326580;-0.738660
2.082500;-7.927077;0.817595;5.577569;1.298087;11.600138;-0.595117
2.085000;-9.456801;0.951430;5.811774;1.514657;11.837737;-0.494667
2.087500;-11.330288;1.268781;6.094339;1.731528;12.022051;-0.396975
2.090000;-13.661853;1.943670;6.490233;1.972163;12.173358;-0.330296
2.092500;-16.722616;2.758130;7.147432;2.237734;12.202475;-0.264919
2.095000;-20.259060;3.663738;7.366528;2.500469;12.163547;-0.201285
2.097500;-24.353212;4.557409;7.836958;2.748180;12.045905;-0.103437
2.100000;-27.900892;5.626109;8.303914;2.989181;11.797630;-0.045351
2.102500;-31.391874;5.863575;8.827740;3.168903;11.474700;0.034198
2.105000;-34.558560;5.983375;9.443233;3.364098;11.048373;0.087460
2.107500;-36.558752;6.113797;9.433832;3.568305;10.570998;0.074455
2.110000;-37.350272;6.421834;9.124240;3.685446;10.054702;0.020592
2.112500;-37.372816;6.992957;8.679301;3.797625;9.539854;-0.096774
2.115000;-36.508205;7.868922;8.302984;3.860529;9.114698;-0.213324
2.117500;-34.420649;8.844366;7.697968;3.835316;8.690433;-0.371366
2.120000;-31.901541;9.572365;7.105125;3.720189;8.362740;-0.582678
2.122500;-29.671059;9.462060;6.499835;3.532506;8.092750;-0.810271
2.125000;-27.217024;9.733785;6.194248;3.333312;7.881110;-1.114865
2.127500;-24.478589;10.141812;4.337224;3.106445;7.652614;-1.360698
2.130000;-22.425990;10.681481;3.368553;2.796845;7.554775;-1.668118
2.132500;-21.439612;10.728539;3.468707;2.455753;7.523156;-1.952556
2.135000;-22.030249;10.409526;4.913456;2.157897;7.526329;-2.176314
2.137500;-23.795401;10.111030;7.476644;1.903531;7.464699;-2.345049
2.140000;-25.973007;10.009042;10.604025;1.738848;7.298222;-2.456242
2.142500;-27.626407;9.872677;13.410723;1.661539;7.057418;-2.467081
2.145000;-28.512812;9.748340;15.965711;1.618487;6.757591;-2.456980
2.147500;-28.715619;9.614220;17.937154;1.647209;6.423523;-2.389726
2.150000;-28.001989;9.946387;19.334861;1.680852;6.073102;-2.297898
2.152500;-27.080853;10.656559;20.332140;1.709649;5.734504;-2.254104
2.155000;-25.943506;11.374150;21.080696;1.725266;5.395327;-2.168853
2.157500;-24.584451;11.860474;21.490235;1.715243;5.031094;-2.108854
2.160000;-22.797676;12.139501;21.680190;1.660280;4.658655;-2.090293
2.162500;-20.289638;12.662497;21.814480;1.541634;4.301622;-2.078170
2.165000;-17.008077;14.004017;22.155261;1.397161;3.925672;-2.084095
2.167500;-13.673438;13.551261;22.270207;1.190906;3.550704;-2.093574
2.170000;-7.915315;12.746793;26.654679;0.993628;3.147272;-2.134441
2.172500;-0.450772;11.334612;26.999212;0.944390;2.394371;-2.300613
2.175000;-0.710908;8.974310;17.655479;0.913873;1.900019;-2.400720
2.177500;-8.690003;7.871553;12.802308;0.735194;2.153741;-2.496809
2.180000;-16.302878;9.819890;14.537578;0.458278;2.560161;-2.465771
2.182500;-21.285008;12.170827;18.626076;0.168960;2.731366;-2.278686
2.185000;-25.264802;13.570424;24.268567;0.007998;2.494188;-2.037365
2.187500;-28.010286;14.676317;29.384655;-0.008521;1.956657;-1.715796
2.190000;-28.360903;15.452136;32.332485;0.028867;1.129094;-1.389083
2.192500;-26.548106;15.714691;32.751263;0.073011;0.296607;-1.100805
2.195000;-23.661775;15.563649;31.565164;0.061412;-0.446384;-0.835431
2.197500;-20.624348;15.076567;29.980331;-0.020846;-0.982589;-0.648271
2.200000;-18.167068;14.581166;28.417986;-0.075948;-1.395535;-0.513196
2.202500;-15.968095;14.372599;27.052454;-0.137705;-1.718850;-0.431747
2.205000;-13.753457;14.291486;25.730751;-0.205138;-1.975513;-0.418355
2.207500;-11.665697;13.848418;24.671656;-0.334479;-2.176608;-0.414959
2.210000;-9.789706;12.956688;23.962563;-0.422016;-2.324520;-0.465468
2.212500;-8.101923;11.880631;23.433235;-0.513735;-2.483787;-0.522538
2.215000;-6.577423;10.832249;22.859620;-0.527246;-2.615727;-0.568587
2.217500;-5.210132;9.905684;22.191118;-0.533747;-2.721154;-0.644929
2.220000;-3.965196;9.075632;21.507545;-0.521662;-2.822395;-0.714738
2.222500;-2.809111;8.396147;20.850699;-0.460474;-2.885570;-0.807217
2.225000;-1.846692;7.807537;20.350065;-0.364324;-2.957065;-0.888968
2.227500;-1.178890;7.289182;20.093208;-0.280287;-2.976688;-0.914447
2.230000;-0.924217;6.953577;20.096592;-0.172556;-2.997806;-0.977096
2.232500;-1.023488;6.905159;20.204215;-0.042114;-3.047242;-1.020506
2.235000;-1.388974;7.107633;20.344270;0.053404;-3.136624;-1.051197
2.237500;-1.898525;7.462315;20.432371;0.160506;-3.205038;-1.080624
2.240000;-2.440519;7.928622;20.424884;0.226867;-3.342447;-1.132542
2.242500;-2.881469;8.436087;20.304231;0.266549;-3.460063;-1.186387
2.245000;-3.212470;8.928768;20.130915;0.311094;-3.626520;-1.177502
2.247500;-3.421182;9.339056;19.886247;0.274357;-3.781027;-1.233732
2.250000;-3.481679;9.686186;19.617062;0.287147;-3.947879;-1.303330
2.252500;-3.449120;9.948076;19.360482;0.231276;-4.128817;-1.344513
2.255000;-3.314601;10.082326;19.129252;0.185219;-4.236683;-1.363084
2.257500;-3.171881;10.077288;18.897029;0.116645;-4.406141;-1.404037
2.260000;-2.995038;9.975502;18.622465;0.091207;-4.546214;-1.442577
2.262500;-2.789734;9.766662;18.262982;0.052614;-4.671022;-1.443781
2.265000;-2.570091;9.521807;17.853827;0.025783;-4.790320;-1.470043
2.267500;-2.344926;9.296187;17.380526;-0.003303;-4.916613;-1.429819
2.270000;-2.119476;9.130232;16.837774;-0.042298;-5.007693;-1.457949
2.272500;-1.962932;9.077978;16.325605;-0.055030;-5.085463;-1.448933
2.275000;-1.743510;9.071755;15.885348;-0.054980;-5.167165;-1.461850
2.277500;-1.508173;9.214164;15.542505;-0.069624;-5.241811;-1.450703
2.280000;-1.455450;9.474185;15.277199;-0.110408;-5.274384;-1.458678
2.282500;-1.492291;9.758865;15.127746;-0.134984;-5.329010;-1.451655
2.285000;-1.683369;10.014091;15.073679;-0.178213;-5.387873;-1.438041
2.287500;-1.970535;10.160946;15.091814;-0.221078;-5.437016;-1.448273
2.290000;-2.302000;10.279155;15.090201;-0.275660;-5.522519;-1.386830
2.292500;-2.708770;10.392497;15.088535;-0.311327;-5.589979;-1.342685
2.295000;-3.188913;10.507923;15.110862;-0.353967;-5.687174;-1.257365
2.297500;-3.687508;10.626226;15.073837;-0.385433;-5.782832;-1.217883
2.300000;-4.197410;10.714094;14.995764;-0.397754;-5.877144;-1.102042
2.302500;-4.631099;10.694326;14.844989;-0.444690;-5.984866;-1.016780
2.305000;-5.035883;10.637494;14.584127;-0.477221;-6.073741;-0.931342
2.307500;-5.347292;10.548985;14.306877;-0.493394;-6.186208;-0.790561
2.310000;-5.622700;10.367237;13.996569;-0.482352;-6.329689;-0.682898
2.312500;-5.808380;10.165275;13.640419;-0.493007;-6.370759;-0.564256
2.315000;-5.920898;9.933918;13.248990;-0.496326;-6.504349;-0.409539
2.317500;-6.015518;9.651944;12.802328;-0.456145;-6.573873;-0.265141
2.320000;-6.073105;9.409670;12.375329;-0.430164;-6.653794;-0.131751
2.322500;-6.110498;9.167220;11.948826;-0.415981;-6.729821;0.026806
2.325000;-6.158984;8.913876;11.521957;-0.387445;-6.789104;0.189877
2.327500;-6.198297;8.664392;11.076933;-0.337128;-6.844074;0.345294
2.330000;-6.241137;8.433119;10.641185;-0.319221;-6.877912;0.474834
2.332500;-6.247223;8.216731;10.169642;-0.297736;-6.923570;0.632595
2.335000;-6.275637;7.952608;9.717395;-0.270907;-6.930364;0.780963
2.337500;-6.355428;7.682885;9.300664;-0.235892;-6.925645;0.933809
2.340000;-6.445993;7.434521;8.931724;-0.243887;-6.930880;1.129213
2.342500;-6.536407;7.194596;8.610736;-0.219893;-6.917641;1.267985
2.345000;-6.688977;6.980167;8.334470;-0.167007;-6.900118;1.406727
2.347500;-6.881652;6.790878;8.114515;-0.154253;-6.874306;1.546756
2.350000;-7.088582;6.656281;7.920457;-0.118825;-6.854737;1.688822
2.352500;-7.366656;6.557310;7.833594;-0.086073;-6.828658;1.812413
2.355000;-7.649885;6.498105;7.785612;-0.059260;-6.783650;1.927481
2.357500;-8.015387;6.458110;7.846251;-0.069383;-6.754322;2.035939
2.360000;-8.488400;6.509317;7.993412;-0.052680;-6.731212;2.148608
2.362500;-8.984889;6.594318;8.221304;-0.038609;-6.689026;2.240749
2.365000;-9.495586;6.737508;8.486172;-0.034875;-6.713858;2.332172
2.367500;-10.120035;6.894678;8.737314;-0.028884;-6.706161;2.419596
2.370000;-10.748102;7.049496;9.025174;0.001624;-6.692225;2.517933
2.372500;-11.249467;7.239807;9.196768;-0.016162;-6.703519;2.608454
2.375000;-11.811010;7.477690;9.405958;-0.012579;-6.712260;2.661840
2.377500;-12.248236;7.662582;9.536733;-0.040124;-6.726428;2.721794
2.380000;-12.630733;7.795596;9.675773;-0.055742;-6.753319;2.799043
2.382500;-12.998862;7.878778;9.831312;-0.075330;-6.772774;2.865487
2.385000;-13.251737;7.908083;9.972650;-0.097007;-6.819415;2.925091
2.387500;-13.340478;7.801563;10.039525;-0.128540;-6.855877;3.005581
2.390000;-13.285854;7.486626;9.997658;-0.108158;-6.879314;3.049022
2.392500;-13.162947;6.979805;9.885854;-0.054023;-6.904774;3.091314
2.395000;-12.977249;6.279094;9.718692;-0.060809;-6.933013;3.183993
2.397500;-12.709490;5.518268;9.483062;0.007629;-6.942672;3.215571
2.400000;-12.461317;4.865016;9.170537;0.117113;-6.931494;3.264691
2.402500;-12.228538;4.398344;8.763485;0.268027;-6.896190;3.316083
2.405000;-11.986344;4.018833;8.158550;0.429799;-6.869044;3.343326
2.407500;-11.695213;3.613121;7.318903;0.581172;-6.813795;3.377454
2.410000;-11.360320;3.213395;6.299935;0.755477;-6.745848;3.398560
2.412500;-11.066734;2.959568;5.225962;0.926884;-6.624010;3.370021
2.415000;-10.815797;2.905724;4.156339;1.054415;-6.465111;3.392134
2.417500;-10.596828;2.994431;3.127661;1.164465;-6.241955;3.373481
2.420000;-10.473893;3.207221;2.307597;1.264055;-6.016842;3.372304
2.422500;-10.574872;3.615602;1.763584;1.308329;-5.743063;3.320486
2.425000;-11.041093;4.228296;1.481176;1.349275;-5.427069;3.249486
2.427500;-11.747980;4.774715;1.354317;1.371327;-5.126901;3.195891
2.430000;-12.733460;5.110134;1.281403;1.366366;-4.805834;3.149272
2.432500;-13.892705;5.274770;1.210116;1.359530;-4.480924;3.140987
2.435000;-15.232572;5.349942;1.096794;1.375465;-4.166297;3.123868
2.437500;-16.606059;5.350689;0.956228;1.384477;-3.838455;3.144046
2.440000;-17.990328;5.400013;0.758733;1.382617;-3.529837;3.196767
2.442500;-19.457890;5.597500;0.623065;1.448273;-3.197331;3.286626
2.445000;-20.975496;5.985763;0.498850;1.479465;-2.872629;3.414628
2.447500;-22.525198;6.527339;0.308874;1.533704;-2.557198;3.531509
2.450000;-24.162638;7.163449;-0.027914;1.518292;-2.260670;3.635268
2.452500;-25.921163;7.836798;-0.459426;1.560792;-1.947753;3.788166
2.455000;-27.779352;8.478586;-1.052013;1.544111;-1.634702;3.912890
2.457500;-29.696884;9.087070;-1.834160;1.470822;-1.367830;4.031841
2.460000;-31.634207;9.517646;-2.714069;1.391046;-1.101523;4.101771
2.462500;-33.561993;9.752966;-3.650657;1.281798;-0.834471;4.193681
2.465000;-35.556872;9.807201;-4.446825;1.174839;-0.600580;4.259111
2.467500;-38.009143;9.712531;-4.832014;1.088262;-0.369643;4.333315
2.470000;-41.094831;9.482264;-4.740468;1.063256;-0.215807;4.413224
2.472500;-44.628053;9.002125;-4.474255;1.062330;-0.113265;4.514510
2.475000;-48.363734;8.246689;-4.428975;1.120043;-0.092633;4.654178
2.477500;-51.871629;7.132800;-4.918835;1.204975;-0.191419;4.789303
2.480000;-54.626339;5.784831;-6.222617;1.325194;-0.350273;4.933459
2.482500;-56.231186;4.225328;-8.354310;1.468407;-0.551441;5.078056
2.485000;-56.772022;2.705656;-11.046879;1.604301;-0.749794;5.212672
2.487500;-56.325224;1.247573;-13.998196;1.695610;-0.905129;5.297468
2.490000;-55.243329;-0.292768;-16.704436;1.773101;-0.988923;5.337139
2.492500;-53.681745;-2.022299;-19.400502;1.812345;-1.056984;5.253752
2.495000;-51.508322;-3.912847;-22.206272;1.838207;-1.059594;5.099029
2.497500;-49.002153;-5.979046;-25.090067;1.852636;-1.023405;4.825817
2.500000;-45.618938;-7.986790;-28.450792;1.839234;-0.913734;4.494371
2.502500;-43.196263;-9.757506;-30.956634;1.792744;-0.688935;4.101055
2.505000;-41.525745;-11.541647;-33.125713;1.738314;-0.455957;3.650163
2.507500;-39.638181;-12.838202;-34.944628;1.658435;-0.265441;3.148458
2.510000;-38.138934;-14.136773;-36.290683;1.572809;-0.022713;2.578653
2.512500;-37.236198;-15.027525;-37.134179;1.536749;0.227894;2.092780
2.515000;-36.693004;-15.465265;-37.566493;1.480741;0.438880;1.602066
2.517500;-36.693343;-15.508976;-37.583449;1.445174;0.685827;1.101822
2.520000;-37.005784;-15.196547;-36.986340;1.433124;0.879819;0.685969
2.522500;-37.406596;-14.722047;-36.152483;1.456490;1.047932;0.256598
2.525000;-37.822886;-13.918497;-35.017891;1.503084;1.129368;-0.082238
2.527500;-38.006698;-12.684339;-33.895985;1.541041;1.179905;-0.380121
2.530000;-37.573368;-11.337847;-33.034137;1.561611;1.244357;-0.632133
2.532500;-36.936250;-9.977705;-32.218718;1.585686;1.297416;-0.800301
2.535000;-35.636636;-8.299222;-31.743335;1.558264;1.372997;-0.957411
2.537500;-34.640998;-7.635653;-30.978472;1.537215;1.470364;-1.072424
2.540000;-33.140062;-6.530095;-30.648517;1.537861;1.543766;-1.118166
2.542500;-31.811856;-5.770942;-30.090091;1.495143;1.647187;-1.229876
2.545000;-29.904287;-5.045394;-29.812318;1.484063;1.760332;-1.282739
2.547500;-28.074011;-4.377724;-29.419097;1.452499;1.924823;-1.339323
2.550000;-26.240384;-3.757820;-29.018838;1.431634;2.052421;-1.369039
2.552500;-24.416227;-3.212983;-28.494246;1.407738;2.245464;-1.345638
2.555000;-22.806183;-2.623465;-27.775673;1.397640;2.458679;-1.336219
2.557500;-21.267478;-2.056815;-26.836250;1.345153;2.703643;-1.260856
2.560000;-19.777748;-1.461717;-25.689719;1.321782;2.902858;-1.203532
2.562500;-18.302189;-0.853349;-24.320622;1.297641;3.106937;-1.104699
2.565000;-16.770061;-0.083400;-22.762774;1.246380;3.283505;-0.982159
2.567500;-21.117323;14.686417;-12.521820;1.023889;3.443669;-0.769553
2.570000;-25.040345;26.562657;-6.007357;-1.170026;2.873022;-1.106255
2.572500;-26.043252;19.292869;-14.227493;-3.556611;2.330205;-2.565917
2.575000;-28.807829;2.822132;-11.289920;-4.884358;2.460925;-4.643124
2.577500;-35.270147;-12.249392;-1.130433;-6.235648;2.336826;-6.024659
2.580000;-43.391125;-18.369707;9.346760;-7.068576;1.769435;-6.648150
2.582500;-49.289859;-18.850493;17.816812;-6.926360;0.927266;-6.529997
2.585000;-53.478237;-16.771724;24.220465;-6.143123;-0.410663;-6.016397
2.587500;-55.626846;-12.141993;24.181558;-4.934505;-1.816987;-5.189354
2.590000;-51.445833;-10.759339;22.377574;-3.588462;-2.886422;-4.075393
2.592500;-40.558505;-9.782532;21.059097;-2.454255;-3.558894;-3.273135
2.595000;-25.092164;-6.604262;18.577655;-1.736398;-3.909568;-2.757094
2.597500;-7.446832;-1.402329;15.298048;-1.504092;-3.993266;-2.540238
2.600000;1.598404;0.784968;15.892774;-1.557234;-3.836445;-2.545380
2.602500;0.117597;3.217735;15.995069;-1.505896;-3.614055;-2.551314
2.605000;-4.238081;0.835010;15.560021;-1.352429;-3.452564;-2.429302
2.607500;-9.610729;-2.599338;14.227365;-1.157833;-3.428660;-2.247178
2.610000;-15.076688;-4.805254;12.392905;-0.960870;-3.404010;-2.053451
2.612500;-15.124438;-3.217620;10.390940;-0.848771;-3.399418;-1.820681
2.615000;-11.000501;0.524842;8.486105;-0.771587;-3.344701;-1.594338
2.617500;-8.259447;2.166448;7.319173;-0.820914;-3.162414;-1.417648
2.620000;-8.493524;1.429220;7.621960;-0.898748;-2.903557;-1.238654
2.622500;-9.178656;0.828933;7.717809;-0.940248;-2.707836;-1.117135
2.625000;-8.840859;0.917107;7.391751;-0.966557;-2.572505;-0.962922
2.627500;-8.150140;1.479836;7.476168;-0.968376;-2.447832;-0.887707
2.630000;-7.132431;1.713908;7.915658;-0.964243;-2.343848;-0.832335
2.632500;-6.173045;1.428722;8.562854;-0.933873;-2.265805;-0.783673
2.635000;-5.400632;1.010751;8.883923;-0.905681;-2.179465;-0.730455
2.637500;-5.324905;0.816032;8.876750;-0.851891;-2.054117;-0.689906
2.640000;-5.885317;1.079178;8.622172;-0.819490;-1.923849;-0.617627
2.642500;-6.129748;1.687011;8.173932;-0.802928;-1.792541;-0.562933
2.645000;-6.270529;2.050122;8.105456;-0.763996;-1.681963;-0.515017
2.647500;-5.968267;2.194676;8.193305;-0.730395;-1.594316;-0.483720
2.650000;-5.630202;2.170072;8.424208;-0.702922;-1.508583;-0.467656
2.652500;-5.264058;2.237669;8.599511;-0.677174;-1.432167;-0.464818
2.655000;-5.067658;2.461389;8.720421;-0.626190;-1.370170;-0.477501
2.657500;-5.024260;2.528790;9.088489;-0.581536;-1.279833;-0.487599
2.660000;-4.382388;2.736474;8.931129;-0.524181;-1.202117;-0.517662
2.662500;-4.482338;2.571556;9.111389;-0.450011;-1.115972;-0.520130
2.665000;-4.881325;2.157184;9.355809;-0.404048;-0.997483;-0.507838
2.667500;-4.319749;2.142237;9.306886;-0.367533;-0.892558;-0.535277
2.670000;-4.522891;1.985304;9.256353;-0.307799;-0.763649;-0.528487
2.672500;-4.806309;1.912163;9.160372;-0.264370;-0.662999;-0.526336
2.675000;-5.070391;1.914089;9.301200;-0.215179;-0.526982;-0.495485
2.677500;-4.544847;2.089601;8.910538;-0.207021;-0.444643;-0.480585
2.680000;-4.919859;2.036939;8.843784;-0.169676;-0.345004;-0.480601
2.682500;-5.188214;1.979915;8.886411;-0.145313;-0.267673;-0.452476
2.685000;-5.144469;1.881328;9.083663;-0.105946;-0.189912;-0.465905
2.687500;-4.760987;1.873898;8.999122;-0.064813;-0.098879;-0.461828
2.690000;-4.975042;1.960754;9.068256;-0.050223;-0.014056;-0.453300
2.692500;-4.960314;2.241662;9.019470;-0.037714;0.086253;-0.433798
2.695000;-5.133191;2.453438;9.042814;-0.016386;0.203720;-0.444626
2.697500;-4.653221;2.787816;9.201108;-0.003335;0.297020;-0.462421
2.700000;-4.631818;2.672623;9.296395;0.043103;0.401897;-0.465741
2.702500;-4.625763;2.714546;9.429479;0.054770;0.541241;-0.468647
2.705000;-4.561027;2.754568;9.534528;0.089889;0.655968;-0.517724
2.707500;-4.194833;2.837260;9.680500;0.086381;0.780744;-0.541567
2.710000;-4.120139;2.711478;9.841453;0.120401;0.968786;-0.590882
2.712500;-3.954491;2.710386;10.066476;0.143618;1.132393;-0.609944
2.715000;-3.998076;2.732012;10.236833;0.165810;1.340950;-0.618660
2.717500;-3.900384;2.712366;10.515265;0.164759;1.556031;-0.656722
2.720000;-3.645927;2.846319;10.603690;0.175102;1.784597;-0.689292
2.722500;-3.654461;2.912762;10.697957;0.191798;2.008104;-0.730587
2.725000;-3.537773;3.035010;10.788417;0.175283;2.287825;-0.751587
2.727500;-3.526529;3.046575;10.866129;0.160878;2.579165;-0.778952
2.730000;-3.440005;3.074854;10.886912;0.157652;2.842175;-0.801219
2.732500;-3.392784;2.973980;10.990322;0.147899;3.133339;-0.810017
2.735000;-3.158670;2.870629;10.910492;0.176977;3.422277;-0.805881
2.737500;-3.042194;2.691940;11.033351;0.166405;3.755456;-0.828394
2.740000;-2.898923;2.690057;11.079209;0.191218;4.061576;-0.862273
2.742500;-2.572426;2.639143;11.116262;0.181134;4.400606;-0.850983
2.745000;-2.326085;2.418709;11.140684;0.172931;4.708282;-0.842143
2.747500;-1.962179;2.227692;11.092755;0.166892;5.056767;-0.835081
2.750000;-1.611751;1.943121;11.060264;0.140726;5.434822;-0.855979
2.752500;-1.151757;1.600414;10.934219;0.148595;5.798831;-0.831290
2.755000;-0.548069;1.324038;10.825167;0.143845;6.164708;-0.791324
2.757500;0.126371;1.201688;10.667619;0.165309;6.555883;-0.765407
2.760000;0.718017;1.052473;10.515169;0.134174;6.937496;-0.736152
2.762500;1.270226;1.108990;10.103888;0.117091;7.310914;-0.727812
2.765000;1.599210;0.992301;9.761126;0.106310;7.764064;-0.725069
2.767500;1.745725;1.021113;9.468523;0.093462;8.140765;-0.716617
2.770000;1.720046;1.112288;9.144600;0.120117;8.555373;-0.716577
2.772500;1.645798;1.067369;8.882763;0.114293;8.979698;-0.749024
2.775000;1.346159;1.137302;8.417505;0.142738;9.363331;-0.787448
2.777500;1.105462;1.160477;8.227652;0.201323;9.751970;-0.790987
2.780000;0.227763;1.264563;7.761361;0.241807;10.153232;-0.796413
2.782500;-0.763506;1.282223;7.746343;0.259278;10.503197;-0.793564
2.785000;-1.530490;0.858591;7.591273;0.323211;10.836305;-0.775631
2.787500;-2.061842;1.098885;7.256195;0.412419;11.213739;-0.800120
2.790000;-2.963390;1.897872;7.132240;0.454047;11.557146;-0.774784
2.792500;-4.737862;2.323951;6.950476;0.490283;11.875582;-0.743939
2.795000;-6.949967;2.748289;7.372937;0.490012;12.131691;-0.744154
2.797500;-9.204703;2.811621;7.947766;0.495692;12.336747;-0.760083
2.800000;-11.442589;2.891468;8.633631;0.545763;12.476574;-0.733205
2.802500;-14.188082;2.603102;9.233884;0.638030;12.528884;-0.725703
2.805000;-17.629847;2.769371;9.835646;0.778077;12.508012;-0.703867
2.807500;-21.629766;3.201062;10.396497;0.912866;12.378100;-0.658082
2.810000;-26.169899;3.439777;11.421152;1.017282;12.144586;-0.598990
2.812500;-29.983733;3.619748;12.293762;1.158829;11.774140;-0.574338
2.815000;-33.376650;3.787917;13.474917;1.296396;11.349940;-0.518705
2.817500;-35.607824;3.816736;14.016885;1.404165;10.867464;-0.446328
2.820000;-36.460837;3.516028;14.508900;1.493510;10.393549;-0.428528
2.822500;-36.912861;3.626352;14.855947;1.541858;9.924515;-0.402056
2.825000;-36.446146;4.168031;15.002804;1.561291;9.458191;-0.471833
2.827500;-35.270649;5.117477;14.684478;1.499991;9.068472;-0.608487
2.830000;-33.582801;6.585164;14.462374;1.343641;8.729336;-0.812279
2.832500;-31.043120;8.188874;13.735765;1.066668;8.432997;-1.065680
2.835000;-29.178911;9.219231;13.258303;0.724011;8.227091;-1.345963
2.837500;-27.814949;9.557131;12.933843;0.331685;8.024636;-1.647557
2.840000;-27.143128;10.074110;12.903241;-0.082585;7.885268;-1.957070
2.842500;-27.908344;10.155815;13.745022;-0.526343;7.709497;-2.238111
2.845000;-30.540428;10.056660;16.325426;-0.968088;7.497274;-2.448241
2.847500;-33.648956;9.956313;19.372848;-1.300148;7.162256;-2.581352
2.850000;-35.811817;10.150414;21.438847;-1.503237;6.688970;-2.626006
2.852500;-36.449391;10.803136;22.614578;-1.667125;6.156484;-2.567095
2.855000;-35.672831;11.448527;23.125319;-1.852563;5.583417;-2.487004
2.857500;-33.765962;11.586121;23.272823;-1.937224;5.071304;-2.336726
2.860000;-30.711823;11.029645;23.008034;-2.060495;4.594143;-2.166295
2.862500;-26.272295;9.690570;23.337729;-2.180896;4.143155;-2.008704
2.865000;-20.541782;9.029849;24.259226;-2.276102;3.731420;-1.915655
2.867500;-14.195025;7.194726;25.331270;-2.272738;3.323117;-1.729798
2.870000;-4.701627;5.845543;32.320013;-2.141609;2.841756;-1.571173
2.872500;4.373550;4.134219;30.213961;-1.672168;2.038259;-1.376072
2.875000;0.725172;-1.404937;19.476241;-1.213281;1.773999;-1.369488
2.877500;-11.185432;-5.161099;21.986768;-0.843021;2.207501;-1.417785
2.880000;-16.512354;-5.435374;28.217033;-0.500232;2.387962;-1.392868
2.882500;-19.314080;-4.213549;37.118491;-0.176618;2.217305;-1.342279
2.885000;-20.901492;-1.670560;44.470239;0.310989;1.601634;-1.225601
2.887500;-19.426892;1.347000;48.034577;0.862572;0.605326;-1.108429
2.890000;-15.470356;2.617935;48.308492;1.379739;-0.466100;-0.952470
2.892500;-10.531184;2.944420;46.510411;1.813910;-1.386886;-0.871925
2.895000;-6.255397;3.316808;43.241765;2.072185;-2.124285;-0.868409
2.897500;-2.677727;4.006037;39.513069;2.169807;-2.625946;-0.914237
2.900000;0.452028;5.133721;36.115922;2.157943;-2.970692;-1.057443
2.902500;2.727751;6.190669;33.757769;1.994037;-3.163528;-1.198428
2.905000;4.195194;6.937032;32.281165;1.838385;-3.299320;-1.342936
2.907500;4.787176;7.320435;31.306538;1.635110;-3.464773;-1.429516
2.910000;5.010824;7.534501;30.345338;1.435581;-3.658433;-1.612302
2.912500;5.280134;7.759812;29.219638;1.232441;-3.837331;-1.709814
2.915000;5.862219;8.190022;27.694613;1.024533;-3.998535;-1.817065
2.917500;6.130567;8.621364;26.268680;0.794841;-4.125413;-1.796157
2.920000;6.289381;9.122221;24.910619;0.570228;-4.228100;-1.983421
2.922500;6.117931;9.560401;23.884545;0.306399;-4.303663;-2.052359
2.925000;5.586383;9.877960;23.161605;0.097360;-4.383535;-2.079922
2.927500;4.934017;10.199501;22.606971;-0.116978;-4.443004;-2.150879
2.930000;4.305104;10.464162;22.045061;-0.323061;-4.534924;-2.119623
2.932500;3.645268;10.476343;21.599912;-0.512319;-4.652539;-2.125700
2.935000;3.001567;10.445083;21.110594;-0.642977;-4.755975;-2.072844
2.937500;2.440894;10.465863;20.647702;-0.738051;-4.851718;-2.048407
2.940000;1.973241;10.417217;20.120215;-0.845957;-4.989092;-1.953452
2.942500;1.881497;10.351487;19.423216;-0.931064;-5.104895;-1.927134
2.945000;1.641389;10.315254;18.796475;-0.993549;-5.218564;-1.894289
2.947500;1.632343;10.271364;18.063030;-1.040516;-5.323824;-1.869073
2.950000;1.726634;10.284197;17.398900;-1.076205;-5.434336;-1.840715
2.952500;1.823833;10.437391;16.780237;-1.089190;-5.489417;-1.800957
2.955000;1.899446;10.649114;16.179958;-1.134860;-5.525636;-1.769653
2.957500;2.098673;10.957424;15.544880;-1.181783;-5.560452;-1.777671
2.960000;2.248787;11.312795;14.975285;-1.236768;-5.603569;-1.792313
2.962500;2.361952;11.616122;14.476147;-1.299512;-5.618138;-1.832790
2.965000;2.461593;11.810773;14.023619;-1.368023;-5.594267;-1.843332
2.967500;2.542073;11.880422;13.610056;-1.441990;-5.587688;-1.902013
2.970000;2.574167;11.841534;13.253295;-1.498889;-5.590626;-1.944428
2.972500;2.518417;11.808862;13.019638;-1.536604;-5.583231;-1.963857
2.975000;2.440499;11.742637;12.836704;-1.567893;-5.525435;-1.993654
2.977500;2.285404;11.652472;12.705065;-1.572200;-5.507739;-1.983562
2.980000;2.044166;11.565755;12.635784;-1.543718;-5.485850;-1.962588
2.982500;1.676037;11.427667;12.642119;-1.521702;-5.457225;-1.981855
2.985000;1.254932;11.318880;12.678705;-1.476318;-5.437665;-1.927084
2.987500;0.729766;11.275950;12.779584;-1.412730;-5.396780;-1.901598
2.990000;0.215521;11.210447;12.913683;-1.315844;-5.392775;-1.844952
2.992500;-0.226325;11.236520;13.131365;-1.229298;-5.383630;-1.781726
2.995000;-0.670163;11.491005;13.389625;-1.153334;-5.369022;-1.743590
2.997500;-1.180327;11.973183;13.650048;-1.030553;-5.351628;-1.659789
3.000000;-1.683791;12.629571;13.895558;-0.929415;-5.365238;-1.622157
3.002500;-2.232022;13.457285;14.102769;-0.859339;-5.394841;-1.565025
3.005000;-2.894893;14.430710;14.308410;-0.811360;-5.415924;-1.525227
3.007500;-3.621559;15.468720;14.518561;-0.823932;-5.451249;-1.437419
3.010000;-4.388336;16.549377;14.717043;-0.841767;-5.492390;-1.395496
3.012500;-5.186467;17.606301;14.927439;-0.898211;-5.569446;-1.330928
3.015000;-5.965053;18.571520;15.133848;-1.001054;-5.622526;-1.267039
3.017500;-6.680634;19.387584;15.233729;-1.103622;-5.709422;-1.176193
3.020000;-7.373934;19.987854;15.295481;-1.221003;-5.809459;-1.134479
3.022500;-7.976540;20.451054;15.284635;-1.319156;-5.906993;-1.029469
3.025000;-8.452439;20.679949;15.190195;-1.420834;-5.988950;-0.916583
3.027500;-8.806492;20.760346;15.034872;-1.502064;-6.078176;-0.808165
3.030000;-9.099024;20.727464;14.824851;-1.535304;-6.164311;-0.685628
3.032500;-9.403301;20.609639;14.543842;-1.569300;-6.235138;-0.525789
3.035000;-9.645581;20.440480;14.230773;-1.533309;-6.305791;-0.368312
3.037500;-9.897119;20.268180;13.887989;-1.469065;-6.361013;-0.178005
3.040000;-10.119126;20.125345;13.518564;-1.393744;-6.398596;0.028815
3.042500;-10.329558;20.076631;13.096833;-1.275179;-6.437210;0.242021
3.045000;-10.511941;20.100971;12.674576;-1.163375;-6.459956;0.436835
3.047500;-10.697285;20.233828;12.225558;-1.055800;-6.481814;0.644727
3.050000;-10.924133;20.469626;11.776402;-0.940347;-6.485097;0.881142
3.052500;-11.179769;20.778368;11.365831;-0.822789;-6.518724;1.117201
3.055000;-11.453563;21.108862;10.980779;-0.714739;-6.510104;1.316639
3.057500;-11.813551;21.433536;10.665369;-0.641877;-6.519419;1.524723
3.060000;-12.261103;21.828030;10.385231;-0.539794;-6.486646;1.722265
3.062500;-12.695719;22.264366;9.995290;-0.480881;-6.463414;1.917624
3.065000;-13.106418;22.428367;9.671731;-0.416291;-6.438135;2.121809
3.067500;-13.271869;22.476301;9.377144;-0.373731;-6.402589;2.335976
3.070000;-13.195958;22.409968;8.993606;-0.302351;-6.341831;2.541603
3.072500;-13.247723;22.421196;8.762264;-0.223750;-6.237120;2.757502
3.075000;-13.013838;22.321694;8.548044;-0.157051;-6.203238;2.928999
3.077500;-12.680786;22.021117;8.126470;-0.103110;-6.107819;3.114349
3.080000;-12.527074;21.761944;7.853670;-0.027445;-6.027959;3.298398
3.082500;-12.148951;21.372845;7.323806;0.035702;-5.940892;3.480385
3.085000;-11.703160;20.705856;6.717729;0.106017;-5.802403;3.650994
3.087500;-11.523143;20.031851;6.361000;0.235627;-5.646133;3.850055
3.090000;-11.459258;19.568565;5.944300;0.392835;-5.445577;4.025466
3.092500;-11.048408;19.164379;5.302791;0.539475;-5.263105;4.211538
3.095000;-10.473593;18.676192;4.307377;0.678836;-5.040429;4.343514
3.097500;-9.760008;18.100001;3.239126;0.823251;-4.771735;4.477072
3.100000;-8.926974;17.587700;1.997594;0.941470;-4.477786;4.584745
3.102500;-7.824810;17.230671;0.758488;1.058596;-4.140542;4.649134
3.105000;-6.627777;17.052496;-0.487799;1.138031;-3.745767;4.706527
3.107500;-5.390956;17.001354;-1.553410;1.223451;-3.271056;4.733068
3.110000;-4.359080;16.996837;-2.437687;1.302861;-2.762765;4.760007
3.112500;-3.724576;17.051403;-3.008998;1.330884;-2.230415;4.793942
3.115000;-3.591864;17.231977;-3.396387;1.354117;-1.663376;4.829408
3.117500;-3.929691;17.545670;-3.602709;1.394788;-1.052900;4.834787
3.120000;-4.751610;18.138289;-3.569963;1.408830;-0.455070;4.857550
3.122500;-6.243405;19.177575;-3.141087;1.390778;0.112649;4.871308
3.125000;-8.636214;20.644686;-2.152522;1.386728;0.663336;4.948143
3.127500;-12.140759;22.342069;-0.629559;1.388870;1.202581;5.057699
3.130000;-16.601364;24.009457;1.226852;1.402438;1.643653;5.278745
3.132500;-21.682350;25.465704;2.970448;1.398566;1.993287;5.542697
3.135000;-26.884299;26.806705;4.281053;1.362081;2.189129;5.881532
3.137500;-31.747171;28.025062;4.785080;1.280288;2.299957;6.202110
3.140000;-35.959062;28.609194;4.338504;1.123563;2.287352;6.559869
3.142500;-38.702445;27.369263;3.765091;0.986791;2.214910;6.910733
3.145000;-40.623913;25.028275;3.101174;0.777535;2.181419;7.310453
3.147500;-42.783726;22.873109;2.884113;0.786957;2.265734;7.826493
3.150000;-45.156835;20.845001;2.986970;0.873173;2.312924;8.317905
3.152500;-47.488681;19.236058;2.969226;1.069922;2.294903;8.755782
3.155000;-49.710564;17.998302;2.449165;1.298866;2.293984;9.149974
3.157500;-51.958051;16.662805;1.375240;1.507038;2.248974;9.436865
3.160000;-54.066676;15.141368;-0.326598;1.678397;2.164200;9.695113
3.162500;-55.802008;13.576420;-2.511263;1.788095;2.033281;9.824224
3.165000;-56.885858;12.033002;-4.906205;1.898537;1.881750;9.900601
3.167500;-57.386444;10.457898;-7.467526;1.893656;1.704887;9.850337
3.170000;-57.315924;8.664905;-10.110579;1.791433;1.506202;9.746596
3.172500;-56.752490;6.471784;-12.733894;1.616015;1.302914;9.555751
3.175000;-55.620414;3.967125;-15.423233;1.424469;1.116223;9.261465
3.177500;-54.045929;1.208484;-18.159111;1.198916;0.910286;8.886317
3.180000;-51.993637;-1.674965;-21.145777;0.952487;0.782678;8.407278
3.182500;-49.619849;-5.067672;-24.069982;0.700912;0.617305;7.829751
3.185000;-47.673957;-8.785304;-26.834413;0.467584;0.509738;7.150428
3.187500;-45.466210;-12.594645;-29.615287;0.295675;0.421566;6.426390
3.190000;-43.449396;-16.444940;-32.246536;0.196589;0.380086;5.667793
3.192500;-41.977843;-20.098152;-34.644607;0.185491;0.345297;4.907972
3.195000;-41.036352;-23.537355;-36.602754;0.267766;0.332042;4.135055
3.197500;-40.417281;-26.443861;-38.230981;0.444845;0.336564;3.399041
3.200000;-40.001213;-28.538060;-39.549732;0.718996;0.334716;2.701720
3.202500;-39.881089;-29.702690;-40.630258;1.064972;0.337542;2.082544
3.205000;-39.694713;-29.834867;-41.571407;1.423048;0.352103;1.541642
3.207500;-39.421163;-28.839989;-42.340551;1.753070;0.354759;1.026453
3.210000;-39.139249;-26.986274;-42.844338;2.034928;0.357938;0.551458
3.212500;-38.753285;-24.487992;-43.141175;2.190795;0.363347;0.133312
3.215000;-38.082919;-21.775475;-43.344481;2.270143;0.395457;-0.258286
3.217500;-37.287489;-19.071751;-43.397480;2.239067;0.425602;-0.586346
3.220000;-36.226648;-16.540263;-43.229995;2.110375;0.481963;-0.941138
3.222500;-34.939291;-14.490216;-42.847476;1.931131;0.572507;-1.269116
3.225000;-33.593136;-13.054302;-42.104196;1.720284;0.674076;-1.545410
3.227500;-32.037937;-11.969398;-41.159923;1.564168;0.780833;-1.802079
3.230000;-30.469930;-11.206347;-40.017391;1.412087;0.919704;-2.017932
3.232500;-28.899219;-10.592329;-38.833720;1.325177;1.118069;-2.198347
3.235000;-27.412964;-10.004655;-37.556604;1.303088;1.330687;-2.319836
3.237500;-26.637413;-8.234609;-35.931448;1.302846;1.525548;-2.422222
3.240000;-31.637685;3.907466;-31.151785;1.245235;1.723061;-2.441928
3.242500;-39.623621;10.564356;-30.569276;0.684780;1.666597;-2.619657
3.245000;-46.580945;0.724947;-32.588740;-0.078819;1.717927;-3.328983
3.247500;-51.658048;-11.199034;-27.730126;-0.514280;1.773194;-4.508221
3.250000;-55.064068;-3.895913;-23.066922;-0.986053;1.110161;-5.051954
3.252500;-57.150610;10.231906;-23.564191;-1.851768;0.186497;-4.987818
3.255000;-58.478986;14.193143;-18.451371;-2.925925;-0.582921;-4.920359
3.257500;-59.087897;14.289771;-12.704017;-3.756626;-1.680010;-4.675859
3.260000;-48.170052;9.220311;-8.501757;-4.054411;-2.757236;-4.079486
3.262500;-28.925502;3.833676;-2.565474;-4.020225;-3.318414;-3.547692
3.265000;-9.494000;3.918932;4.269345;-3.992006;-3.368462;-3.356072
3.267500;7.158134;7.408380;11.166286;-4.093856;-3.035965;-3.387568
3.270000;16.395691;6.521496;19.966405;-4.199353;-2.536211;-3.342237
3.272500;9.196337;0.105268;28.650020;-3.774392;-2.085645;-3.149553
3.275000;-0.637584;-6.716747;32.017598;-2.843111;-2.153673;-2.872441
3.277500;-7.480979;-11.351377;29.202249;-1.794673;-2.648633;-2.730210
3.280000;-11.986010;-9.240189;20.543739;-0.918792;-3.102093;-2.633386
3.282500;-14.657444;-2.000690;12.055321;-0.490916;-3.343110;-2.502510
3.285000;-13.779862;5.589531;5.325423;-0.432712;-3.407580;-2.363073
3.287500;-11.820131;8.805249;2.611591;-0.695255;-3.326149;-2.233081
3.290000;-11.838211;6.086404;4.095871;-1.025948;-3.177860;-2.117270
3.292500;-13.120167;1.596490;6.861475;-1.219697;-3.114902;-2.047741
3.295000;-13.157140;-1.457490;7.370198;-1.261509;-3.110117;-1.879552
3.297500;-12.301212;-1.047716;6.078215;-1.219517;-3.172206;-1.691841
3.300000;-11.475065;0.246911;5.170560;-1.242340;-3.158579;-1.445623
3.302500;-10.382106;1.093671;5.270987;-1.306515;-3.130907;-1.229621
3.305000;-9.202267;1.280797;6.185440;-1.421657;-3.121166;-1.092050
3.307500;-7.980581;1.136952;7.157006;-1.471089;-3.158663;-1.025988
3.310000;-6.987625;1.310771;7.352317;-1.484402;-3.153613;-0.930143
3.312500;-6.935183;1.862277;6.829877;-1.483199;-3.144191;-0.846212
3.315000;-7.593311;2.694459;6.189256;-1.461328;-3.078889;-0.782417
3.317500;-8.123522;3.633429;5.808641;-1.436824;-3.066606;-0.752011
3.320000;-8.029064;4.555156;5.741534;-1.508112;-3.045064;-0.735561
3.322500;-6.983828;4.445635;6.477048;-1.557820;-3.047153;-0.754196
3.325000;-5.659602;3.757821;7.382024;-1.587711;-3.051253;-0.774944
3.327500;-5.024882;2.987959;8.033652;-1.590777;-3.020741;-0.784302
3.330000;-4.853777;2.238103;8.097716;-1.530909;-2.974508;-0.783733
3.332500;-5.109639;1.881246;8.092046;-1.475259;-2.881562;-0.739051
3.335000;-5.678257;1.928647;8.179742;-1.412868;-2.782264;-0.692218
3.337500;-5.413197;2.056246;8.075034;-1.379992;-2.724356;-0.624122
3.340000;-5.313176;1.539512;8.514979;-1.353688;-2.586542;-0.567992
3.342500;-5.468314;0.689142;9.233035;-1.317737;-2.470692;-0.496688
3.345000;-4.780415;0.198766;9.787094;-1.199953;-2.324384;-0.441936
3.347500;-3.586669;-0.364423;11.128165;-1.109131;-2.089051;-0.388430
3.350000;-2.354232;-0.486758;11.881063;-0.980668;-1.809888;-0.330331
3.352500;-1.317199;0.121310;12.414461;-0.861217;-1.487743;-0.285049
3.355000;-1.052989;0.601580;12.493206;-0.730708;-1.171452;-0.270197
3.357500;-0.877734;1.268205;12.411167;-0.620417;-0.841587;-0.259550
3.360000;-1.261706;2.137451;11.956214;-0.572744;-0.563740;-0.292893
3.362500;-1.688401;3.244134;11.329163;-0.514159;-0.330730;-0.346462
3.365000;-2.307110;4.173453;10.786094;-0.495130;-0.116716;-0.386937
3.367500;-2.903128;4.375088;10.377282;-0.515538;0.052147;-0.518114
3.370000;-3.448126;4.447603;10.242975;-0.522417;0.201903;-0.614590
3.372500;-3.547991;4.359544;10.184524;-0.541412;0.359688;-0.688066
3.375000;-3.590345;3.765263;10.377249;-0.528824;0.527695;-0.722075
3.377500;-3.541497;3.309111;10.715182;-0.532662;0.695726;-0.863047
3.380000;-3.197305;3.038627;11.212960;-0.499248;0.899894;-0.950391
3.382500;-2.691794;2.471792;11.714004;-0.447856;1.122265;-0.973134
3.385000;-2.450201;2.274157;12.053371;-0.399391;1.357531;-1.028537
3.387500;-2.376106;2.304838;12.287462;-0.374932;1.669770;-1.040529
3.390000;-2.154716;1.897817;12.429356;-0.360455;1.980826;-1.044741
3.392500;-2.181805;1.630383;12.686023;-0.311840;2.346386;-1.038636
3.395000;-1.960299;1.482454;12.898271;-0.291801;2.714003;-1.043434
3.397500;-1.691947;1.461928;13.140383;-0.285264;3.119094;-1.031479
3.400000;-1.690512;1.379937;13.231781;-0.272944;3.477963;-1.000318
3.402500;-1.690745;1.591516;13.294354;-0.253364;3.857100;-1.006159
3.405000;-1.540842;1.506306;13.273372;-0.225124;4.272713;-0.997366
3.407500;-1.508036;1.476987;13.255514;-0.239904;4.637061;-0.999920
3.410000;-1.258159;1.535166;13.146155;-0.224743;5.017115;-1.003548
3.412500;-1.133470;1.527552;13.095757;-0.223790;5.423470;-1.017718
3.415000;-1.052724;1.274807;13.045859;-0.215251;5.798282;-1.014696
3.417500;-0.644881;1.125158;12.780248;-0.219419;6.215124;-1.042923
3.420000;0.002484;1.396915;12.378677;-0.199249;6.614727;-1.030132
3.422500;0.257384;1.670666;12.184747;-0.189028;7.042340;-1.081317
3.425000;0.550051;1.613021;11.834233;-0.195498;7.409791;-1.092622
3.427500;1.022985;1.614834;11.449994;-0.195599;7.816006;-1.110126
3.430000;1.369453;1.352094;11.185587;-0.187466;8.241299;-1.140425
3.432500;1.588784;1.303971;10.851764;-0.152089;8.636411;-1.182085
3.435000;1.843751;1.128802;10.418297;-0.176728;9.070548;-1.267856
3.437500;1.870090;0.816465;9.974348;-0.190203;9.442442;-1.299679
3.440000;1.947259;0.935491;9.568493;-0.211765;9.869629;-1.418339
3.442500;2.071141;1.718653;9.073734;-0.228799;10.291313;-1.517672
3.445000;2.167887;2.001873;8.702912;-0.276571;10.689260;-1.549347
3.447500;2.001465;2.265605;8.067667;-0.295007;11.128288;-1.598046
3.450000;0.653340;2.286427;7.673794;-0.315858;11.513014;-1.625188
3.452500;-1.330299;2.263053;7.282328;-0.369272;11.894793;-1.663041
3.455000;-3.218554;1.987411;7.778561;-0.450628;12.230297;-1.666360
3.457500;-5.827611;1.498863;8.457788;-0.492715;12.521232;-1.680966
3.460000;-8.221373;1.229398;9.556645;-0.448048;12.689535;-1.659078
3.462500;-12.046008;1.976260;10.382295;-0.375082;12.764885;-1.631790
3.465000;-17.337174;2.180530;12.411962;-0.270921;12.737180;-1.586703
3.467500;-22.390930;2.088489;13.910942;-0.127701;12.535842;-1.464965
3.470000;-26.459353;2.176535;15.435697;0.037676;12.256725;-1.333480
3.472500;-30.212032;2.461738;16.220489;0.199082;11.839791;-1.267968
3.475000;-33.039663;2.779435;16.766839;0.303907;11.275138;-1.235739
3.477500;-34.117332;2.925054;17.185346;0.391615;10.744154;-1.267766
3.480000;-34.304838;2.763948;17.648891;0.462056;10.248938;-1.237234
3.482500;-33.522787;2.732050;17.752549;0.495234;9.748056;-1.206892
3.485000;-31.627224;2.377274;17.632243;0.504276;9.362617;-1.238626
3.487500;-29.710516;2.483877;17.275200;0.465380;9.020363;-1.315752
3.490000;-28.178527;3.405846;16.269385;0.395633;8.785102;-1.431108
3.492500;-25.777010;5.090369;14.995040;0.235835;8.595388;-1.650918
3.495000;-23.526715;6.941127;13.714720;-0.011595;8.420501;-1.905276
3.497500;-22.376632;8.029953;13.034224;-0.380573;8.293149;-2.182325
3.500000;-22.428205;9.002211;13.221744;-0.770933;8.194997;-2.402002
3.502500;-23.408881;9.731903;14.220297;-1.159275;8.035579;-2.626465
3.505000;-25.458788;10.116674;16.091846;-1.573521;7.857176;-2.794014
3.507500;-27.702952;10.411093;18.477096;-1.899622;7.557089;-2.900867
3.510000;-29.487102;10.434390;20.482814;-2.160663;7.128005;-2.889249
3.512500;-30.158125;10.236927;21.685416;-2.311412;6.633600;-2.756545
3.515000;-29.672391;10.122896;22.666760;-2.401201;6.128258;-2.598192
3.517500;-28.103809;9.656314;22.854161;-2.472977;5.615790;-2.397477
3.520000;-24.789417;9.054656;22.525414;-2.542189;5.120695;-2.208871
3.522500;-20.074280;8.464234;23.111362;-2.582924;4.693695;-2.028650
3.525000;-15.076686;8.183813;22.414306;-2.650711;4.317658;-1.862114
3.527500;-7.221690;8.923889;25.132746;-2.707134;3.996313;-1.708068
3.530000;2.830509;10.295138;26.319728;-2.639588;3.501792;-1.478287
3.532500;6.125847;6.577636;19.740118;-2.555902;3.081204;-1.302160
3.535000;-2.246247;0.864979;17.340103;-2.488691;3.242446;-1.308804
3.537500;-11.274441;0.554864;22.644922;-2.317026;3.490329;-1.297182
3.540000;-16.820952;2.306381;28.537310;-2.050325;3.434805;-1.166163
3.542500;-20.106762;3.540587;34.804927;-1.735907;2.983873;-0.899081
3.545000;-19.920482;5.409183;38.983240;-1.341495;2.263941;-0.659995
3.547500;-17.056935;6.732448;40.652228;-0.984647;1.406606;-0.428018
3.550000;-12.882532;7.136909;39.944485;-0.730590;0.564108;-0.220562
3.552500;-9.265470;7.209682;37.964410;-0.574071;-0.168215;-0.074665
3.555000;-6.689706;7.259799;35.875674;-0.484530;-0.710246;0.002769
3.557500;-4.637841;7.417359;33.999618;-0.510655;-1.125031;0.016486
3.560000;-2.711407;7.484008;32.147318;-0.586822;-1.486761;-0.045414
3.562500;-0.989898;7.364220;30.380445;-0.687162;-1.821933;-0.141773
3.565000;0.483702;6.913448;28.832962;-0.775156;-2.064716;-0.245734
3.567500;1.747205;6.308373;27.429977;-0.875704;-2.304337;-0.345169
3.570000;2.921942;5.596999;26.079137;-0.936371;-2.494758;-0.429939
3.572500;4.071276;4.945403;24.665580;-1.024797;-2.647629;-0.508786
3.575000;5.218401;4.494936;23.279472;-1.066740;-2.772203;-0.579885
3.577500;6.217192;4.310499;22.072448;-1.131413;-2.814848;-0.675202
3.580000;7.083828;4.336638;21.068367;-1.181818;-2.870175;-0.748926
3.582500;7.783203;4.521237;20.341413;-1.246270;-2.909664;-0.829019
3.585000;8.228652;4.833321;19.806329;-1.305167;-2.977178;-0.921434
3.587500;8.526151;5.225748;19.371411;-1.362357;-2.947628;-0.977886
3.590000;8.610675;5.608543;18.964316;-1.449577;-2.998760;-1.029630
3.592500;8.566502;5.959128;18.577718;-1.543162;-3.019644;-1.067898
3.595000;8.323616;6.222057;18.283071;-1.649039;-3.075985;-1.115178
3.597500;7.957921;6.499964;18.035248;-1.736626;-3.095800;-1.142452
3.600000;7.471210;6.762175;17.924255;-1.851984;-3.164767;-1.175615
3.602500;6.905699;7.025827;17.883149;-1.959013;-3.217949;-1.210798
3.605000;6.284999;7.252138;17.919542;-2.025464;-3.304791;-1.218063
3.607500;5.603399;7.440899;17.928337;-2.139247;-3.430407;-1.232141
3.610000;4.976550;7.596982;17.886641;-2.221080;-3.519315;-1.246996
3.612500;4.396948;7.692702;17.812445;-2.317211;-3.657321;-1.277609
3.615000;3.817558;7.802163;17.799136;-2.360737;-3.787822;-1.311562
3.617500;3.186271;7.848323;17.760071;-2.391082;-3.899537;-1.335493
3.620000;2.654249;7.923561;17.681345;-2.403821;-4.014329;-1.364990
3.622500;2.070946;8.019561;17.590489;-2.404263;-4.169935;-1.392777
3.625000;1.541250;8.193465;17.405871;-2.398325;-4.277387;-1.422277
3.627500;1.110765;8.391090;17.172338;-2.378976;-4.405748;-1.455340
3.630000;0.704566;8.666433;16.873782;-2.339848;-4.522517;-1.493817
3.632500;0.291297;8.988045;16.547828;-2.286393;-4.632019;-1.523539
3.635000;-0.084717;9.382412;16.236305;-2.236149;-4.721773;-1.541068
3.637500;-0.428840;9.858076;15.983343;-2.193748;-4.816598;-1.576128
3.640000;-0.758022;10.370273;15.729221;-2.124465;-4.894590;-1.613276
3.642500;-1.044542;10.940494;15.491377;-2.066999;-4.959891;-1.565173
3.645000;-1.350551;11.613604;15.244729;-2.017749;-5.003217;-1.619412
3.647500;-1.667010;12.377115;14.961773;-1.979770;-5.064968;-1.617108
3.650000;-1.995698;13.240256;14.638861;-1.961061;-5.104244;-1.566528
3.652500;-2.388651;14.094357;14.343753;-1.924549;-5.112392;-1.583297
3.655000;-2.974176;14.967930;14.079061;-1.943382;-5.153045;-1.502031
3.657500;-3.672436;15.716874;13.880499;-1.947361;-5.156696;-1.446528
3.660000;-4.392278;16.272030;13.666854;-2.001108;-5.206543;-1.389136
3.662500;-5.139343;16.615156;13.435991;-2.082938;-5.235066;-1.272432
3.665000;-5.927468;16.828509;13.330057;-2.089813;-5.250274;-1.205929
3.667500;-6.531703;17.091992;13.199613;-2.146947;-5.292261;-1.098171
3.670000;-7.148143;17.662615;13.240905;-2.151467;-5.285550;-1.027239
3.672500;-7.740806;18.462788;13.354721;-2.188308;-5.323689;-0.980800
3.675000;-8.241591;19.298289;13.382716;-2.196086;-5.350750;-0.889609
3.677500;-8.753516;20.127167;13.369871;-2.254209;-5.394614;-0.806098
3.680000;-9.327985;20.961523;13.270834;-2.282135;-5.422560;-0.736667
3.682500;-9.836547;21.787140;13.107055;-2.361530;-5.468418;-0.671664
3.685000;-10.308347;22.627560;12.913005;-2.467397;-5.507919;-0.621808
3.687500;-10.776726;23.421575;12.757308;-2.574668;-5.576872;-0.558069
3.690000;-11.274899;24.141778;12.653644;-2.692293;-5.553764;-0.486726
3.692500;-11.741226;24.703000;12.505209;-2.810205;-5.561049;-0.413478
3.695000;-12.081770;25.146444;12.322029;-2.910142;-5.599911;-0.323144
3.697500;-12.427051;25.430093;12.168665;-2.977411;-5.595840;-0.223647
3.700000;-12.800329;25.634447;12.065490;-3.025222;-5.611104;-0.069822
3.702500;-13.155464;25.797763;12.001076;-3.056805;-5.617012;0.094983
3.705000;-13.565791;25.954785;11.898425;-3.030931;-5.614533;0.272832
3.707500;-14.030908;26.129306;11.881119;-2.972261;-5.604724;0.461586
3.710000;-14.492493;26.337917;11.665329;-2.874949;-5.634927;0.675984
3.712500;-14.880475;26.594893;11.359698;-2.765561;-5.611977;0.912720
3.715000;-15.290155;26.936559;10.916160;-2.675808;-5.619551;1.156795
3.717500;-15.746338;27.454537;10.469309;-2.580839;-5.639754;1.408304
3.720000;-15.915921;28.036145;9.895634;-2.414201;-5.635481;1.628165
3.722500;-16.169641;28.666307;9.307417;-2.377941;-5.591115;1.890277
3.725000;-16.337845;29.195471;8.687294;-2.310730;-5.571685;2.138961
3.727500;-16.233695;29.580900;7.971362;-2.261457;-5.565025;2.395192
3.730000;-16.160999;29.925973;7.276407;-2.204147;-5.514966;2.609336
3.732500;-16.332334;30.299203;6.549913;-2.176234;-5.414058;2.865615
3.735000;-16.488272;30.672192;6.197585;-2.152887;-5.313766;3.088058
3.737500;-16.183783;30.768663;5.703219;-2.147541;-5.201101;3.311785
3.740000;-16.178496;31.073171;5.429762;-2.106548;-5.083884;3.520168
3.742500;-16.431562;31.173887;5.207127;-2.076733;-4.970624;3.712293
3.745000;-16.732649;31.230892;4.993983;-2.057653;-4.828307;3.928793
3.747500;-17.316515;31.259838;4.854664;-2.025978;-4.732845;4.131722
3.750000;-17.778516;31.091649;4.843701;-2.013867;-4.615285;4.320799
3.752500;-18.033148;30.959160;4.657695;-1.967551;-4.489238;4.497824
3.755000;-18.435288;30.980890;4.531989;-1.920608;-4.366639;4.708609
3.757500;-18.593751;30.998754;4.161822;-1.880020;-4.239482;4.870318
3.760000;-18.458344;30.822675;3.611245;-1.850133;-4.160617;5.031548
3.762500;-18.051853;30.276882;3.130451;-1.865982;-4.051484;5.188939
3.765000;-17.616728;29.874888;2.695786;-1.874865;-3.904334;5.316111
3.767500;-17.075753;29.638361;2.285398;-1.852616;-3.756045;5.438767
3.770000;-16.626536;29.404300;1.883822;-1.855954;-3.596222;5.556178
3.772500;-16.331997;29.072708;1.597292;-1.841049;-3.429559;5.631120
3.775000;-16.177478;28.661157;1.345301;-1.796496;-3.255548;5.715938
3.777500;-15.989919;28.274568;0.998587;-1.787724;-3.075253;5.788905
3.780000;-15.813715;27.885093;0.484010;-1.701754;-2.918898;5.862504
3.782500;-15.523955;27.504606;-0.204465;-1.661265;-2.757584;5.944989
3.785000;-15.000838;27.188240;-1.022910;-1.589692;-2.581542;6.018754
3.787500;-14.264504;26.943471;-1.969914;-1.548561;-2.387641;6.070907
3.790000;-13.349555;26.781849;-2.941273;-1.535394;-2.199201;6.132833
3.792500;-12.434702;26.609403;-3.923776;-1.521477;-1.917247;6.163038
3.795000;-11.521697;26.373074;-4.676707;-1.561273;-1.622844;6.197904
3.797500;-10.899669;26.182022;-5.110490;-1.589963;-1.287096;6.200485
3.800000;-10.688198;26.181138;-4.924848;-1.601315;-0.960738;6.228010
3.802500;-11.341205;26.213459;-3.784278;-1.534480;-0.645429;6.272795
3.805000;-13.027879;26.300367;-1.921082;-1.372845;-0.381932;6.330023
3.807500;-15.578957;26.351787;0.224371;-1.180352;-0.169010;6.453358
3.810000;-18.450915;26.257111;2.150770;-0.923875;-0.078760;6.611325
3.812500;-21.286314;26.260385;3.633307;-0.630463;-0.062497;6.832741
3.815000;-24.057988;26.543089;4.771798;-0.308392;-0.092597;7.077483
3.817500;-26.536541;27.125251;5.446846;-0.021373;-0.153511;7.337111
3.820000;-28.581661;27.837905;5.730422;0.205846;-0.252500;7.598549
3.822500;-30.062744;28.712665;5.640739;0.369867;-0.413252;7.820047
3.825000;-31.094539;29.608931;5.210597;0.491170;-0.573475;8.062311
3.827500;-31.590260;30.356750;4.363336;0.528795;-0.730384;8.245871
3.830000;-31.618282;30.620891;3.134909;0.493605;-0.850483;8.378831
3.832500;-31.332948;29.844925;1.577511;0.397580;-0.961292;8.501460
3.835000;-30.735474;27.517150;-0.026029;0.287692;-1.013296;8.605612
3.837500;-30.226608;24.280263;-1.429634;0.221698;-1.001447;8.734677
3.840000;-29.886789;20.960774;-2.606098;0.290845;-0.923103;8.854333
3.842500;-29.660219;17.709247;-3.731366;0.422655;-0.832647;8.934666
3.845000;-29.402418;14.732824;-4.894016;0.610602;-0.721530;8.950590
3.847500;-29.110784;11.875586;-6.082431;0.843497;-0.551932;8.888413
3.850000;-28.849462;9.445714;-7.409708;1.098890;-0.364368;8.809861
3.852500;-28.641185;7.325149;-8.809290;1.382632;-0.181339;8.667798
3.855000;-28.544016;5.611482;-10.281767;1.646135;0.036612;8.483494
3.857500;-28.773175;4.129802;-11.404903;1.907227;0.229305;8.224694
3.860000;-29.346374;3.251278;-12.242240;2.132077;0.448755;7.912661
3.862500;-30.194828;2.863230;-12.892482;2.276570;0.582505;7.574694
3.865000;-31.341699;2.810461;-13.377785;2.426870;0.696101;7.170959
3.867500;-32.723751;2.939968;-13.670287;2.453339;0.730744;6.788503
3.870000;-34.317539;3.210464;-13.839736;2.429363;0.736499;6.360028
3.872500;-35.967139;3.627410;-13.970633;2.336508;0.635368;5.925084
3.875000;-37.451133;4.109547;-14.142931;2.150486;0.527401;5.516450
3.877500;-38.649608;4.489800;-14.399307;1.925974;0.331301;5.108038
3.880000;-39.400515;4.576277;-14.739262;1.632650;0.107540;4.714804
3.882500;-39.641044;4.186550;-15.249359;1.314689;-0.129085;4.331389
3.885000;-39.327803;3.226901;-15.934859;0.951195;-0.383958;3.966546
3.887500;-38.556562;1.654203;-16.798486;0.647137;-0.624878;3.571271
3.890000;-37.510046;-0.424647;-17.781212;0.396866;-0.862649;3.181469
3.892500;-36.326986;-2.871563;-18.973648;0.213990;-1.015652;2.805607
3.895000;-34.989996;-5.556197;-20.403710;0.118332;-1.157020;2.430788
3.897500;-33.499693;-7.846445;-21.830301;0.174931;-1.253890;2.035137
3.900000;-32.070268;-9.887214;-23.366730;0.298280;-1.308029;1.671341
3.902500;-30.734637;-11.417320;-24.941594;0.527185;-1.321209;1.318454
3.905000;-29.526978;-12.364740;-26.452002;0.753913;-1.289310;0.960423
3.907500;-28.481773;-12.678214;-27.876268;1.014836;-1.211612;0.638610
3.910000;-27.621026;-12.350001;-29.229596;1.248977;-1.101424;0.309391
3.912500;-27.005233;-11.407457;-30.364561;1.480761;-0.940519;0.043840
3.915000;-26.582058;-9.967608;-31.325072;1.671032;-0.753471;-0.222550
3.917500;-26.322480;-8.105333;-32.020832;1.800033;-0.546152;-0.430848
3.920000;-26.214984;-6.013207;-32.444004;1.829427;-0.354206;-0.584544
3.922500;-26.288887;-3.926283;-32.663612;1.900609;-0.091197;-0.705907
3.925000;-26.395286;-1.847541;-32.563699;1.799859;0.166773;-0.776667
3.927500;-26.440673;0.017463;-32.416245;1.739595;0.390102;-0.828209
3.930000;-26.371047;1.733635;-32.059169;1.623990;0.641763;-0.794160
3.932500;-26.161916;2.893734;-31.592952;1.505104;0.892127;-0.733762
3.935000;-25.739240;3.851009;-31.036682;1.360231;1.143985;-0.623058
3.937500;-25.077872;4.295520;-30.504718;1.227385;1.397089;-0.531880
3.940000;-24.205265;4.482964;-29.929255;1.089305;1.658125;-0.401272
3.942500;-23.436004;4.281958;-29.170009;0.980023;1.943612;-0.289965
3.945000;-22.712950;3.752140;-28.326336;0.874703;2.218828;-0.191751
3.947500;-22.165575;3.005658;-27.352583;0.854209;2.476883;-0.126580
3.950000;-21.763655;2.165090;-26.254321;0.822992;2.692952;-0.046499
3.952500;-21.563555;1.325260;-25.092888;0.820746;2.922790;0.031509
3.955000;-21.586909;0.523775;-23.798521;0.864008;3.125675;0.102582
3.957500;-21.584261;-0.253286;-22.437017;0.922506;3.298719;0.127446
3.960000;-21.508545;-1.076419;-21.098050;0.982797;3.431897;0.158421
3.962500;-21.289279;-1.868852;-19.687159;1.033929;3.560924;0.181696
3.965000;-20.901077;-2.663088;-18.250035;1.091543;3.644115;0.180417
3.967500;-20.373791;-3.549895;-16.703487;1.096917;3.721156;0.154116
3.970000;-20.354767;-2.400592;-14.800282;1.101505;3.781960;0.085546
3.972500;-26.523144;14.430525;-3.441129;0.764501;3.707683;0.117659
3.975000;-32.478883;16.829411;-2.742100;-0.938580;2.971363;-0.518278
3.977500;-39.189130;-1.651931;-7.081545;-2.311010;2.531161;-2.244083
3.980000;-45.849223;-14.318704;-2.630970;-3.268557;2.411214;-4.389996
3.982500;-50.862114;-23.247924;4.676248;-4.351334;1.892170;-5.529036
3.985000;-54.515188;-22.916299;9.396953;-4.915455;1.171416;-5.927680
3.987500;-56.854052;-18.289718;13.584700;-4.940436;0.321170;-5.899940
3.990000;-57.567372;-8.860185;15.931272;-4.469656;-0.654782;-5.460043
3.992500;-51.650413;0.371240;12.769759;-3.827925;-1.579173;-4.691603
3.995000;-38.940702;4.034068;7.974587;-3.344162;-2.199456;-3.971161
3.997500;-23.132721;5.587280;4.817367;-3.280233;-2.491067;-3.664965
4.000000;-8.772025;7.089090;3.450708;-3.544591;-2.391226;-3.646916
4.002500;1.402136;9.636143;3.615950;-3.954775;-2.067050;-3.759831
4.005000;5.590059;11.974153;5.782856;-4.309968;-1.604500;-3.781792
4.007500;3.175422;11.532725;10.054165;-4.455622;-1.245144;-3.671155
4.010000;-4.845153;7.352405;16.939632;-4.251856;-1.168391;-3.466126
4.012500;-16.182696;-0.023886;23.288932;-3.557109;-1.466673;-3.140273
4.015000;-23.906643;-6.937753;24.398590;-2.613173;-2.104904;-2.805315
4.017500;-22.958442;-9.108513;21.291454;-1.766963;-2.866955;-2.507467
4.020000;-17.495429;-5.633215;15.931634;-1.213350;-3.439343;-2.291452
4.022500;-10.018813;1.502945;11.374527;-0.966909;-3.661280;-2.170748
4.025000;-4.269067;7.909490;7.932412;-0.944647;-3.679727;-2.064121
4.027500;-3.388416;8.544604;6.259974;-1.077644;-3.410817;-1.942258
4.030000;-8.385425;3.444567;7.798416;-1.208380;-3.117785;-1.869400
4.032500;-13.708157;-1.335453;9.679603;-1.218603;-2.967285;-1.842118
4.035000;-13.296284;-1.263182;8.784420;-1.142360;-3.039694;-1.739527
4.037500;-10.182724;1.517432;6.222282;-1.052194;-3.110644;-1.594762
4.040000;-8.369550;2.975866;5.325573;-1.068293;-3.003185;-1.434005
4.042500;-7.796185;2.593471;6.072922;-1.113524;-2.809343;-1.349948
4.045000;-7.215208;1.413086;7.008794;-1.162233;-2.686783;-1.248921
4.047500;-6.608427;0.400343;7.379612;-1.161989;-2.620583;-1.169414
4.050000;-6.436129;0.430182;7.126319;-1.144737;-2.513146;-1.035210
4.052500;-6.541580;0.666875;6.794318;-1.125738;-2.426393;-0.921982
4.055000;-6.939037;0.569387;6.675070;-1.119910;-2.297964;-0.777543
4.057500;-7.359482;0.259024;6.836995;-1.132290;-2.172292;-0.665749
4.060000;-7.355232;-0.269818;7.160319;-1.108042;-2.073777;-0.556545
4.062500;-6.730296;-0.578435;7.723595;-1.107117;-1.955917;-0.410178
4.065000;-6.062793;-0.556542;8.213418;-1.105755;-1.831802;-0.266051
4.067500;-5.692915;-0.217817;8.387455;-1.020077;-1.724516;-0.198758
4.070000;-5.581008;0.290335;8.401930;-1.007591;-1.645855;-0.113031
4.072500;-5.557214;1.055376;8.438538;-0.951195;-1.547026;-0.042554
4.075000;-5.455568;1.665922;8.472053;-0.919962;-1.471885;-0.016965
4.077500;-5.182568;2.091188;8.548701;-0.871722;-1.393131;-0.035000
4.080000;-4.909369;2.235344;8.801552;-0.838627;-1.291545;-0.030830
4.082500;-4.708249;2.308522;9.063069;-0.790796;-1.184460;-0.046241
4.085000;-4.472002;2.437506;9.248593;-0.736377;-1.089750;-0.081470
4.087500;-4.237909;2.542024;9.356519;-0.667728;-0.973151;-0.105576
4.090000;-4.093671;2.363159;9.597904;-0.613884;-0.873287;-0.127528
4.092500;-4.013356;2.249957;9.771992;-0.559172;-0.734308;-0.186166
4.095000;-3.932747;2.173085;9.966654;-0.482545;-0.624991;-0.205915
4.097500;-3.797159;2.081024;10.166220;-0.413995;-0.466432;-0.231663
4.100000;-3.646950;2.002955;10.279724;-0.344579;-0.334150;-0.250064
4.102500;-3.526588;1.837949;10.465401;-0.264058;-0.139118;-0.255778
4.105000;-3.536184;1.734855;10.626317;-0.231906;0.010787;-0.260754
4.107500;-3.472474;1.641882;10.682326;-0.178050;0.248609;-0.261577
4.110000;-3.389427;1.684073;10.754700;-0.130422;0.438179;-0.256412
4.112500;-3.262536;1.700539;10.807678;-0.096990;0.666550;-0.261699
4.115000;-3.312179;1.658934;10.922103;-0.057642;0.863477;-0.256376
4.117500;-3.390627;1.713688;10.979566;0.003669;1.073110;-0.260822
4.120000;-3.437465;1.846261;10.961138;0.033998;1.274169;-0.256580
4.122500;-3.474487;2.074278;10.925357;0.053576;1.523561;-0.272552
4.125000;-3.460609;2.201334;10.996758;0.062462;1.724699;-0.280267
4.127500;-3.522474;2.282582;10.988568;0.104019;1.962381;-0.270181
4.130000;-3.504116;2.282422;10.989018;0.109067;2.175240;-0.299536
4.132500;-3.470885;2.311607;10.979038;0.166439;2.436209;-0.312156
4.135000;-3.399082;2.346116;10.959004;0.172132;2.636272;-0.320941
4.137500;-3.359736;2.482651;10.872759;0.210238;2.886798;-0.343480
4.140000;-3.342350;2.327718;10.932621;0.259386;3.142681;-0.369160
4.142500;-3.302094;2.312961;10.916913;0.304278;3.386846;-0.379732
4.145000;-3.254827;2.252431;10.895460;0.372682;3.646693;-0.382544
4.147500;-3.180340;2.140015;10.898169;0.420660;3.932778;-0.395916
4.150000;-3.009045;2.224976;10.879173;0.447255;4.207286;-0.412718
4.152500;-2.597214;2.276461;11.003904;0.502908;4.510292;-0.446790
4.155000;-2.336565;2.035798;10.903294;0.529809;4.832723;-0.442241
4.157500;-2.123528;1.792614;10.875145;0.541226;5.140478;-0.436710
4.160000;-2.035061;1.878148;10.741796;0.587874;5.504656;-0.413292
4.162500;-1.214655;2.354095;10.799196;0.613608;5.793619;-0.426934
4.165000;-0.375272;1.974537;10.475938;0.574285;6.140350;-0.477654
4.167500;-0.115597;1.643110;10.197758;0.600476;6.525724;-0.488751
4.170000;0.308250;1.889755;10.129278;0.607413;6.901929;-0.430304
4.172500;0.633308;1.472520;9.794890;0.599613;7.263769;-0.504834
4.175000;0.801160;1.675829;9.460117;0.601177;7.655575;-0.538878
4.177500;1.300684;2.075488;9.041276;0.597400;8.040330;-0.612401
4.180000;1.235436;1.804911;8.551242;0.559235;8.422596;-0.639674
4.182500;1.362260;2.184760;8.194878;0.584949;8.840258;-0.739028
4.185000;1.605311;2.378310;7.858187;0.493115;9.257686;-0.844572
4.187500;1.640775;2.382635;7.183331;0.474582;9.646621;-0.913403
4.190000;1.343186;2.485660;6.709201;0.502903;10.086072;-0.882490
4.192500;0.792523;2.076278;6.338614;0.525494;10.511617;-1.015159
4.195000;0.315174;1.638173;6.010093;0.567559;10.895259;-1.040315
4.197500;-0.337784;1.578550;5.584751;0.652158;11.276311;-1.109356
4.200000;-1.100794;1.546222;5.110904;0.749675;11.612603;-1.098155
4.202500;-2.533408;1.548717;4.764512;0.844206;11.948981;-1.077007
4.205000;-4.050305;2.124984;4.319696;0.935712;12.310619;-1.073219
4.207500;-4.884228;3.199520;3.986174;0.993044;12.673812;-1.042360
4.210000;-6.035101;3.372951;4.423373;1.002980;13.035690;-1.065588
4.212500;-7.595688;3.383935;5.292863;1.054576;13.366249;-1.066227
4.215000;-9.249089;3.404256;5.591182;1.188213;13.589942;-1.052935
4.217500;-11.422279;3.900854;5.937884;1.311240;13.792299;-1.094469
4.220000;-14.172766;4.331971;6.085696;1.440066;13.908694;-1.114982
4.222500;-17.889687;4.620982;6.352147;1.572504;13.964891;-1.158829
4.225000;-22.556741;5.258665;6.741847;1.763856;13.917619;-1.183161
4.227500;-27.692700;6.002060;7.306896;1.945906;13.741076;-1.147711
4.230000;-32.769069;6.743723;8.320837;2.148714;13.364463;-1.089414
4.232500;-37.258748;7.131671;9.261471;2.358448;12.900538;-1.003702
4.235000;-40.255673;6.858429;9.848306;2.548000;12.314635;-0.912765
4.237500;-41.568853;6.267158;9.814625;2.712129;11.708382;-0.837464
4.240000;-41.719496;5.822929;9.468307;2.880193;11.085055;-0.767000
4.242500;-41.177355;5.731803;9.134689;2.997965;10.504880;-0.748575
4.245000;-39.951277;5.732982;8.984400;3.040373;10.050472;-0.772406
4.247500;-38.034297;6.343843;8.841599;3.027234;9.616513;-0.883517
4.250000;-35.907971;6.504015;8.460710;2.937600;9.270313;-1.002074
4.252500;-33.868738;6.861931;7.891559;2.811556;8.977536;-1.135277
4.255000;-32.136890;7.526111;6.739301;2.676512;8.718528;-1.305217
4.257500;-30.965094;8.101163;5.856070;2.445478;8.511158;-1.509120
4.260000;-31.156748;9.205548;6.229094;2.186206;8.373146;-1.683778
4.262500;-33.149493;9.921476;7.975996;1.923088;8.230823;-1.868927
4.265000;-36.390057;10.317905;11.199357;1.696730;7.993407;-1.994874
4.267500;-39.174928;10.738015;14.544607;1.532057;7.676504;-2.021565
4.270000;-40.830116;11.260988;16.876331;1.447560;7.187738;-2.068025
4.272500;-41.195831;11.824725;18.459393;1.344676;6.625388;-2.039101
4.275000;-40.485921;12.390235;19.936345;1.211175;6.029574;-2.049954
4.277500;-38.853888;12.915910;20.868505;1.074045;5.399806;-2.053681
4.280000;-36.459218;13.323631;21.667418;0.865709;4.800132;-2.069001
4.282500;-33.472288;13.844826;22.632858;0.629185;4.273347;-2.062887
4.285000;-29.393190;14.495666;23.996373;0.385817;3.774985;-2.090553
4.287500;-23.712964;15.227180;25.197408;0.126855;3.239162;-2.086193
4.290000;-14.687733;12.327029;28.241159;-0.150988;2.720659;-2.153060
4.292500;-1.736003;9.337814;33.328824;-0.158526;1.939040;-2.372734
4.295000;1.115414;4.451273;18.700104;0.005554;1.320712;-2.676139
4.297500;-7.416141;2.028160;11.063721;0.043015;1.877364;-2.901982
4.300000;-14.324472;4.138864;12.941078;0.035137;2.755749;-2.899495
4.302500;-18.486760;6.672009;18.839224;-0.056554;3.349899;-2.738111
4.305000;-21.939861;8.230364;27.652056;-0.069156;3.454511;-2.542854
4.307500;-24.499761;9.986021;36.249173;0.126236;3.055596;-2.234920
4.310000;-24.508294;11.351969;42.169484;0.478703;2.185833;-1.843327
4.312500;-21.805912;12.353225;44.266298;0.862447;1.202256;-1.429341
4.315000;-17.974966;13.221969;43.697714;1.134144;0.304065;-1.088421
4.317500;-14.719136;13.971709;42.344295;1.276933;-0.361815;-0.871028
4.320000;-12.327321;14.527382;41.096856;1.338935;-0.851083;-0.716734
4.322500;-10.354712;14.969842;39.935728;1.317233;-1.244838;-0.591610
4.325000;-8.603039;15.283793;38.915370;1.278239;-1.598055;-0.533568
4.327500;-7.045724;15.362586;37.925042;1.192434;-1.954028;-0.516772
4.330000;-5.623147;15.107076;36.823579;1.109978;-2.283490;-0.529010
4.332500;-4.226943;14.529473;35.591653;1.008610;-2.622427;-0.541176
4.335000;-2.906680;13.853422;34.369905;0.921849;-2.890020;-0.561288
4.337500;-1.632323;13.195306;33.077211;0.822493;-3.138412;-0.619343
4.340000;-0.423412;12.625466;31.798396;0.746762;-3.364871;-0.665241
4.342500;0.714644;12.172225;30.480170;0.660684;-3.557437;-0.751142
4.345000;1.676922;11.736047;29.343742;0.625900;-3.687176;-0.816836
4.347500;2.346252;11.363747;28.386631;0.569286;-3.788249;-0.914866
4.350000;2.634681;11.041116;27.750177;0.551497;-3.857939;-0.984240
4.352500;2.483726;10.840148;27.308347;0.544509;-3.967652;-1.013665
4.355000;1.939367;10.796600;26.972356;0.544127;-4.066720;-1.047337
4.357500;1.102231;10.902754;26.589940;0.534683;-4.184638;-1.077907
4.360000;0.091916;11.192179;26.177217;0.557063;-4.328818;-1.090327
4.362500;-1.075217;11.648632;25.708672;0.557895;-4.500336;-1.095373
4.365000;-2.283157;12.297227;25.277598;0.529146;-4.683402;-1.103799
4.367500;-3.486436;13.061635;24.939698;0.476666;-4.883340;-1.104750
4.370000;-4.704022;13.867610;24.647835;0.435563;-5.096837;-1.106983
4.372500;-5.896164;14.632843;24.370980;0.362376;-5.308375;-1.103644
4.375000;-7.019628;15.259144;24.035699;0.277364;-5.598585;-1.091268
4.377500;-7.982860;15.741876;23.533726;0.158279;-5.849136;-1.081619
4.380000;-8.716479;16.042879;22.805675;0.064702;-6.136313;-1.077867
4.382500;-9.143083;16.191982;21.896057;-0.059880;-6.395344;-1.080275
4.385000;-9.299386;16.187537;20.813160;-0.181483;-6.644968;-1.090222
4.387500;-9.206511;16.142387;19.618197;-0.302792;-6.832730;-1.116991
4.390000;-8.878748;16.096018;18.373759;-0.435299;-7.018948;-1.100111
4.392500;-8.352000;16.127271;17.217741;-0.550080;-7.167858;-1.146233
4.395000;-7.656880;16.070301;16.109298;-0.670330;-7.292828;-1.182265
4.397500;-6.789296;16.001058;14.990260;-0.816364;-7.384887;-1.272459
4.400000;-5.837690;15.843498;13.971962;-0.901857;-7.431848;-1.354679
4.402500;-5.000093;15.608985;13.139857;-0.991829;-7.456935;-1.419146
4.405000;-4.296730;15.301829;12.462182;-1.087502;-7.406355;-1.504554
4.407500;-3.799153;14.897073;12.054807;-1.122345;-7.352855;-1.542015
4.410000;-3.597533;14.375960;11.874847;-1.149449;-7.274341;-1.552944
4.412500;-3.574783;13.969877;11.820366;-1.113028;-7.188567;-1.535604
4.415000;-3.802748;13.634989;11.922367;-1.032135;-7.099435;-1.519418
4.417500;-4.200517;13.439270;12.001132;-0.949705;-7.024287;-1.464120
4.420000;-4.723849;13.388583;12.129610;-0.868695;-6.958857;-1.377308
4.422500;-5.290375;13.464860;12.245225;-0.771084;-6.921654;-1.290881
4.425000;-5.507866;13.633162;12.138206;-0.690304;-6.876469;-1.184778
4.427500;-5.816133;13.665599;12.101443;-0.579483;-6.847248;-1.041764
4.430000;-6.429646;13.858240;12.180074;-0.466880;-6.820337;-0.868227
4.432500;-6.826709;14.050485;12.164593;-0.378702;-6.794409;-0.714315
4.435000;-7.095739;14.185464;12.109419;-0.286409;-6.776815;-0.567057
4.437500;-7.339286;14.289080;12.054603;-0.208916;-6.764678;-0.402353
4.440000;-7.533832;14.292276;12.071943;-0.124168;-6.740421;-0.191684
4.442500;-7.816786;14.248230;12.112481;-0.037250;-6.733835;0.010092
4.445000;-8.087021;14.197407;12.109082;0.068506;-6.737505;0.194248
4.447500;-8.398166;14.075668;12.093022;0.173697;-6.746671;0.404569
4.450000;-8.603261;13.933313;11.926562;0.259299;-6.771146;0.667143
4.452500;-8.728321;13.707240;11.678493;0.318669;-6.762928;0.897424
4.455000;-8.803922;13.479705;11.378230;0.400438;-6.752722;1.140752
4.457500;-8.853998;13.218506;11.109608;0.487521;-6.746563;1.372024
4.460000;-8.876441;12.981487;10.801363;0.536400;-6.733739;1.555447
4.462500;-8.844089;12.690095;10.545557;0.601988;-6.717077;1.777065
4.465000;-8.895494;12.478984;10.358350;0.638758;-6.713061;2.002974
4.467500;-9.367423;12.484090;10.280501;0.691612;-6.692979;2.107898
4.470000;-9.629166;12.402088;10.030307;0.675705;-6.752521;2.293977
4.472500;-10.088092;12.498899;9.693937;0.676853;-6.871949;2.404049
4.475000;-10.265952;11.978344;8.832566;0.688637;-6.871175;2.521029
4.477500;-9.245640;11.540045;8.294136;0.704166;-6.734050;2.594458
4.480000;-9.204042;10.110840;8.408111;0.789816;-6.526896;2.843573
4.482500;-10.767044;9.620151;8.892085;0.942623;-6.427606;3.050942
