Time (s),Gyroscope X (deg/s),Gyroscope Y (deg/s),Gyroscope Z (deg/s),Accelerometer X (g),Accelerometer Y (g),Accelerometer Z (g),Magnetometer X (uT),Magnetometer Y (uT),Magnetometer Z (uT),Barometer (hPa)
0.000000000,0.06318481,0.02207279,0.06309039,-0.5318856,0.1572443,0.8016846,31.54238,0.7018276,-37.29359,992.3768
0.002458572,0.06316493,0.08129889,0.002133403,-0.5323362,0.1595772,0.8071039,31.54238,0.7018276,-37.29359,992.3768
0.004918098,0.1249466,-0.2148917,-0.1197416,-0.5367904,0.1606029,0.802318,31.54238,0.7018276,-37.29359,992.3768
0.007376671,0.1867088,-0.03712517,-0.1806411,-0.5362852,0.1610585,0.8042706,31.54238,0.7018276,-37.29359,992.3768
0.009836197,0.001245702,0.1405856,-0.1805843,-0.5343722,0.1621235,0.8004048,31.54238,0.7018276,-37.29359,992.3795
0.012295246,-0.06055614,0.1405414,0.00228385,-0.5358326,0.1625796,0.8014025,31.54238,0.7018276,-37.29359,992.3795
0.014753819,0.06306583,0.1404972,0.002283152,-0.5328193,0.1610078,0.8086104,31.54238,0.7018276,-37.29359,992.3795
0.017213345,0.06304602,0.02198701,-0.05865471,-0.5318629,0.1615404,0.8066775,31.54238,0.7018276,-37.29359,992.3795
0.019671917,0.001224714,0.02198012,-0.1195735,-0.5318838,0.1610983,0.8042358,31.54238,0.7018276,-37.29359,992.3795
0.022131443,-0.06057714,0.08120622,-0.05859873,-0.5348576,0.1572903,0.7978261,31.54238,0.7018276,-37.29359,992.3795
0.024590015,-0.06055809,0.08118068,-0.1804546,-0.5338892,0.1606929,0.7988983,31.54238,0.7018276,-37.29359,992.3795
0.027049065,0.1248653,0.08115514,-0.1194607,-0.5333529,0.1606067,0.8037465,31.54238,0.7018276,-37.29359,992.3795
0.031967163,-0.06059812,-0.09657629,0.06338745,-0.5299073,0.1625238,0.8071785,31.54238,0.7018276,-37.29359,992.3795
0.034426689,-0.1223806,0.1403862,-0.180381,-0.5314447,0.1616808,0.7993955,31.54519,0.335183,-37.30482,992.3795
0.036885262,0.06306229,0.1403421,-0.1193873,-0.5313933,0.1625468,0.8052493,31.54519,0.335183,-37.30482,992.3795
0.039344311,-0.06056045,0.1402981,-0.1802869,-0.5367886,0.1644569,0.8048693,31.54519,0.335183,-37.30482,992.3795
0.041802883,-0.1841443,0.140254,-0.05835597,-0.5333596,0.1601374,0.8027605,31.54519,0.335183,-37.30482,992.3795
0.044262409,0.001317925,0.08097692,-0.1192748,-0.5323993,0.1650023,0.8038797,31.54519,0.335183,-37.30482,992.3795
0.046721935,0.06311901,0.1401845,-0.1801744,-0.5357244,0.1599611,0.8110284,31.54519,0.335183,-37.30482,992.3795
0.049180508,-0.06050373,0.1993735,-0.241055,-0.5324059,0.1611574,0.8008432,31.54519,0.335183,-37.30482,992.3795
0.051639557,-0.1840877,0.0808448,-0.119105,-0.5343747,0.1592353,0.7983701,31.54519,0.335183,-37.30482,992.3778
0.054098129,-0.1222283,0.1400525,-0.1190675,-0.533325,0.1581424,0.8051239,31.54519,0.335183,-37.30482,992.3778
0.056557655,-0.12219,0.2584745,-0.1190301,-0.5323359,0.1562015,0.8050535,31.54519,0.335183,-37.30482,992.3778
0.059016228,0.06325284,-0.03777184,-0.1189928,-0.5329011,0.1630935,0.8013949,31.54519,0.335183,-37.30482,992.3778
0.061475754,0.1250345,-0.03775997,-0.2408297,-0.5348153,0.1605843,0.8042433,31.54519,0.335183,-37.30482,992.3778
0.063934326,0.00139227,0.199184,-0.1798169,-0.5347922,0.1581291,0.8051355,31.54519,0.335183,-37.30482,992.3778
0.068852901,-0.1839742,0.1398631,-0.05788701,-0.5333243,0.1571766,0.8046074,31.54519,0.335183,-37.30482,992.3778
0.071311474,-0.06031348,0.2582852,-0.3625545,-0.5318649,0.161062,0.8061766,31.54519,0.335183,-37.30482,992.3778
0.073771000,-0.06029455,0.1989711,-0.2405664,-0.5367491,0.1590772,0.8056675,31.54519,0.335183,-37.30482,992.3778
0.076229572,-0.1220771,0.1396756,-0.2404908,-0.5333909,0.1640549,0.8019153,31.54519,0.335183,-37.30482,992.3778
0.078688622,-0.1220387,0.08039863,-0.1794781,-0.5324604,0.1583689,0.7934713,31.54519,0.335183,-37.30482,992.3778
0.081147194,-0.3074047,0.08037342,-0.1794217,-0.5334063,0.1626379,0.7994423,31.54519,0.335183,-37.30482,992.3778
0.083606720,-0.2455067,0.1988142,-0.1793654,-0.5279016,0.1595535,0.8104656,31.17604,0.3255965,-36.92254,992.3778
0.086066246,-0.1836281,0.02105261,-0.3011833,-0.5328638,0.1606111,0.8037427,31.17604,0.3255965,-36.92254,992.3778
0.088524818,-0.3071733,-0.03818705,-0.2401515,-0.5304231,0.1572666,0.8011878,31.17604,0.3255965,-36.92254,992.3778
0.090983868,-0.4306797,0.139524,-0.3010133,-0.5338048,0.1614954,0.8081486,31.17604,0.3255965,-36.92254,992.3804
0.093442440,-0.24514,-0.03821892,-0.2399816,-0.5338094,0.1581289,0.805613,31.17604,0.3255965,-36.92254,992.3804
0.095901966,-0.3068644,0.02102617,-0.2399062,-0.5343904,0.1611941,0.7979475,31.17604,0.3255965,-36.92254,992.3804
0.098360539,-0.3067681,0.1394856,-0.3617051,-0.5338417,0.1572266,0.8017001,31.17604,0.3255965,-36.92254,992.3804
0.100820065,-0.1830687,0.08020876,-0.1787801,-0.5342747,0.1580791,0.8080429,31.17604,0.3255965,-36.92254,992.3804
0.103279114,-0.1830112,-0.09751555,-0.1787239,-0.5313972,0.1582145,0.8021972,31.17604,0.3255965,-36.92254,992.3804
0.108197212,-0.1828768,0.3171024,-0.1786308,-0.536227,0.1590181,0.8090601,31.17604,0.3255965,-36.92254,992.3804
0.110659599,-0.1210178,0.2577698,-0.1785747,-0.5347698,0.1566396,0.8065442,31.17604,0.3255965,-36.92254,992.3804
0.113115311,-0.05917838,0.2576887,-0.2394558,-0.5347894,0.1576417,0.8051199,31.17604,0.3255965,-36.92254,992.3804
0.115573883,-0.1209612,0.2576078,-0.1784434,-0.5289459,0.1596717,0.8036804,31.17604,0.3255965,-36.92254,992.3804
0.118032932,-0.1209232,0.07982779,-0.1174502,-0.5363148,0.1596688,0.8003421,31.17604,0.3255965,-36.92254,992.3804
0.120491505,-0.05908375,0.02056971,-0.05647614,-0.5382859,0.160644,0.7994184,31.17604,0.3255965,-36.92254,992.3804
0.122951031,-0.1208667,-0.03866973,-0.05645841,-0.5338792,0.1630847,0.8014026,31.17604,0.3255965,-36.92254,992.3804
0.125410557,-0.05902721,0.07980847,-0.1173778,-0.5259793,0.1606005,0.8075701,31.17604,0.3255965,-36.92254,992.3804
0.127869129,0.06459428,0.1982495,-0.1173409,-0.5343374,0.1567529,0.8007178,31.17604,0.3255965,-36.92254,992.3804
0.130328178,-0.3062348,0.02048811,-0.3610526,-0.5382422,0.1528453,0.799168,31.17604,0.3255965,-36.92254,992.3787
0.132786751,-0.3679401,0.1389478,-0.1171906,-0.535804,0.1591495,0.8022634,31.17604,0.3255965,-36.92254,992.3787
0.135246277,-0.1824201,0.1389042,0.004720471,-0.5328365,0.1557369,0.8035862,31.17604,0.3255965,-36.92254,992.3787
0.140164375,-0.1205041,0.1388541,-0.05620047,-0.5309345,0.1587517,0.7997829,31.17604,0.3255965,-36.92254,992.3787
0.142623425,-0.1822677,0.1980435,-0.05618281,-0.5333676,0.158224,0.8007571,31.17604,0.3255965,-36.92254,992.3787
0.145081997,-0.1204089,0.0202822,-0.1780395,-0.5304092,0.1514539,0.7990591,31.17604,0.3255965,-36.92254,992.3787
0.147541523,-0.2439741,-0.09819023,-0.1779835,-0.5343289,0.1610762,0.8042551,31.17604,0.3255965,-36.92254,992.3787
0.150000095,-0.3056989,0.1980057,-0.1779276,-0.531887,0.1591758,0.8027176,31.17604,0.3255965,-36.92254,992.3787
0.152459621,-0.4292058,0.1979436,-0.2388089,-0.5329084,0.1602144,0.798875,31.17604,0.3255965,-36.92254,992.3787
0.154918194,-0.1200636,0.07941529,-0.1168595,-0.5328689,0.1548346,0.7996733,31.17604,0.3255965,-36.92254,992.3787
0.157377243,-0.1200259,0.07939032,-0.17776,-0.5352738,0.1576282,0.8056089,31.17604,0.3255965,-36.92254,992.3787
0.159836769,-0.2435911,-0.03910065,-0.1777041,-0.5328409,0.1615315,0.8066852,31.17604,0.3255965,-36.92254,992.3787
0.162295342,-0.1817131,0.07937766,-0.1167111,-0.5332636,0.1580244,0.8114316,31.17604,0.3255965,-36.92254,992.3787
0.164754391,-0.2434575,0.2570518,-0.3604231,-0.535184,0.1574558,0.8148279,31.17604,0.3255965,-36.92254,992.3787
0.167213440,-0.1197781,0.197738,-0.2384355,-0.533722,0.1550683,0.8127971,31.17604,0.3255965,-36.92254,992.3787
0.169672489,-0.1815419,0.1976758,0.06632505,-0.5367638,0.1566945,0.802678,31.17604,0.3255965,-36.92254,992.3787
0.172131062,-0.2432863,0.1383807,-0.05557009,-0.5353062,0.1567259,0.8016961,31.17604,0.3255965,-36.92254,992.377
0.174590588,-0.1814084,0.1975703,-0.1774269,-0.5372829,0.1620516,0.8028541,31.17604,0.3255965,-36.92254,992.377
0.177049160,-0.1813514,0.01980913,-0.1164341,-0.534354,0.163053,0.8028621,31.17604,0.3255965,-36.92254,992.377
0.181967735,0.00412811,0.1382813,-0.2381778,-0.5351875,0.1497479,0.8097254,31.17604,0.3255965,-36.92254,992.377
0.184426308,0.06592831,0.37517,-0.1162287,-0.5307831,0.1459246,0.8076245,31.17604,0.3255965,-36.92254,992.377
0.186885834,-0.05769531,0.2565862,0.06661926,-0.5318624,0.1547891,0.8025767,31.17604,0.3255965,-36.92254,992.377
0.189344406,-0.1194787,0.07880649,0.1884726,-0.5347696,0.153264,0.8044938,31.17604,0.3255965,-36.92254,992.377
0.191803455,0.1895663,0.1972478,0.0665391,-0.533875,0.1606657,0.800354,31.17604,0.3255965,-36.92254,992.377
0.194262505,-0.1195006,0.1971859,0.1274553,-0.5378075,0.1683837,0.8030614,31.17604,0.3255965,-36.92254,992.377
0.196721554,0.06594133,0.256357,0.06647818,-0.5349008,0.1674989,0.7996104,31.17604,0.3255965,-36.92254,992.377
0.199181080,0.004119148,0.1378104,0.06645731,-0.5309168,0.1664325,0.806341,31.17604,0.3255965,-36.92254,992.377
0.201639652,-0.05768364,0.01930102,0.1273735,-0.5328227,0.162461,0.8091425,31.17604,0.3255965,-36.92254,992.377
0.204098702,0.004135951,0.3746931,0.06639639,-0.5313002,0.1517601,0.8083014,31.17604,0.3255965,-36.92254,992.377
0.206557751,0.06593615,0.3153424,0.005438407,-0.5358246,0.1519561,0.7957209,31.17604,0.3255965,-36.92254,992.377
0.209016800,-0.1812905,0.3152432,0.127311,-0.5357516,0.1522984,0.8034999,31.17604,0.3255965,-36.92254,992.377
0.211475372,0.004170913,0.1966781,0.005396726,-0.5284209,0.1557495,0.8050069,31.17604,0.3255965,-36.92254,992.3736
0.213934898,-0.05763188,0.07815033,0.00539504,-0.5319924,0.1704681,0.7987107,31.17604,0.3255965,-36.92254,992.3736
0.216393948,-0.05761378,0.2558249,-0.05554381,-0.5338239,0.1649074,0.8082581,31.17604,0.3255965,-36.92254,992.3736
0.218852997,-0.1193972,0.2557445,-0.05552637,-0.528853,0.1522606,0.8087829,31.17604,0.3255965,-36.92254,992.3736
0.221312046,0.06604475,0.1964312,0.06636534,-0.5372358,0.1527998,0.8020715,31.17604,0.3255965,-36.92254,992.3736
0.226230145,-0.05758029,0.2555966,0.005405678,-0.5392688,0.1606443,0.798941,31.17604,0.3255965,-36.92254,992.3736
0.228688717,-0.3665695,0.2555163,-0.1164703,-0.5334906,0.1709966,0.7958267,31.17604,0.3255965,-36.92254,992.3736
0.231150627,-0.3046529,0.07773693,-0.1164337,-0.529422,0.1673571,0.8097572,31.17133,0.3383525,-37.30563,992.3736
0.233606815,0.004450133,0.1961785,-0.2992086,-0.5303383,0.1513178,0.8063372,31.17133,0.3383525,-37.30563,992.3736
0.236065865,-0.1191542,0.3145829,-0.1772403,-0.5313893,0.1509667,0.798566,31.17133,0.3383525,-37.30563,992.3736
0.238525391,-0.1191168,0.3144841,0.005626814,-0.5352541,0.1566261,0.8070333,31.17133,0.3383525,-37.30563,992.3736
0.240983963,-0.1190793,0.2551523,-0.1162493,-0.5323491,0.1610485,0.8066657,31.17133,0.3383525,-37.30563,992.3736
0.243443012,-0.1190419,0.07737303,-0.05527559,-0.5372944,0.1615914,0.8013828,31.17133,0.3383525,-37.30563,992.3736
0.245902062,0.1900028,0.07734873,-0.05525821,-0.5363556,0.1636044,0.7985265,31.17133,0.3383525,-37.30563,992.3736
0.248361111,0.004538745,0.07732443,-0.116178,-0.5329161,0.1640865,0.8004558,31.17133,0.3383525,-37.30563,992.3736
0.250819683,0.00453733,0.1365331,-0.1770786,-0.5329646,0.1627331,0.7945864,31.17133,0.3383525,-37.30563,992.3736
0.253279209,-0.05726558,0.01802419,0.005788423,-0.5333588,0.1591716,0.802244,31.17133,0.3383525,-37.30563,992.3718
0.255738258,-0.0572476,0.07725154,0.06672373,-0.5332884,0.1566257,0.8079882,31.17133,0.3383525,-37.30563,992.3718
0.258196831,-0.05722962,0.07722724,-0.05517153,-0.5353012,0.1533412,0.8001309,31.17133,0.3383525,-37.30563,992.3718
0.260656357,-0.05721163,0.136436,-0.1160913,-0.5342665,0.1566168,0.8079959,31.17133,0.3383525,-37.30563,992.3718
0.263114929,0.06640927,0.1956262,-0.1160549,-0.5333976,0.1635856,0.8009292,31.17133,0.3383525,-37.30563,992.3718
0.268033028,-0.1190368,0.1955591,0.06677204,-0.5313019,0.1570673,0.8113848,31.17133,0.3383525,-37.30563,992.3718
0.270492077,-0.05719795,0.3139637,-0.2988718,-0.5376795,0.1522263,0.8064265,31.17133,0.3383525,-37.30563,992.3718
0.272951603,0.004621462,0.2546321,-0.2378407,-0.5357999,0.1567305,0.8012147,31.17133,0.3383525,-37.30563,992.3718
0.275410175,0.004619988,0.313785,0.06691969,-0.5309688,0.157371,0.7953692,31.17133,0.3383525,-37.30563,992.3718
0.277869701,0.06642001,0.1359874,0.005961541,-0.5333887,0.1611576,0.8003658,31.17133,0.3383525,-37.30563,992.3718
0.280328274,0.004597643,0.07671167,-0.1159146,-0.5304419,0.1664641,0.8048816,31.55504,-0.3497549,-36.94233,992.3718
0.282787323,-0.05720527,0.01745449,-0.1768153,-0.5303934,0.1678175,0.810751,31.55504,-0.3497549,-36.94233,992.3718
0.285246372,0.1900186,0.1951481,-0.05488546,-0.533271,0.1585209,0.810962,31.55504,-0.3497549,-36.94233,992.3718
0.287705422,0.1899589,0.3727858,-0.1767425,-0.5387035,0.1503766,0.8005492,31.55504,-0.3497549,-36.94233,992.3718
0.290164948,0.004494763,0.0765035,0.06706154,-0.536715,0.1546723,0.806497,31.55504,-0.3497549,-36.94233,992.3718
0.292623520,0.004493348,0.2541785,0.0670405,-0.5323469,0.1581512,0.8051162,31.55504,-0.3497549,-36.94233,992.3685
0.295082569,0.004491934,0.07639964,0.1279566,-0.5329314,0.1626696,0.7979828,31.55504,-0.3497549,-36.94233,992.3685
0.297541142,0.004490518,0.1948417,-0.05489505,-0.5343901,0.1669796,0.8015317,31.55504,-0.3497549,-36.94233,992.3685
0.300000668,-0.1191138,0.3132465,-0.05487779,-0.529926,0.1591845,0.8031873,31.55504,-0.3497549,-36.94233,992.3685
0.304918766,-0.05725697,0.194621,-0.1157804,-0.5333654,0.1553267,0.7992075,31.55504,-0.3497549,-36.94233,992.3685
0.307377338,-0.1190404,0.2537928,-0.05480693,-0.5387539,0.157706,0.7998136,31.55504,-0.3497549,-36.94233,992.3685
0.309836388,-0.05720155,0.19448,-0.05478972,-0.5362959,0.1596325,0.8022829,31.55504,-0.3497549,-36.94233,992.3685
0.312295914,0.004617866,0.1944189,0.188976,-0.5298713,0.1585973,0.8085089,31.55504,-0.3497549,-36.94233,992.3685
0.314754486,0.06641789,-0.04257435,0.1279795,-0.5304392,0.1659767,0.8048659,31.55504,-0.3497549,-36.94233,992.3685
0.317214012,0.1281985,0.07590509,-0.1158093,-0.5343652,0.1592172,0.7993405,31.55504,-0.3497549,-36.94233,992.3685
0.319672585,-0.05724618,-0.1610509,0.006101408,-0.5303907,0.1581689,0.8051007,31.55504,-0.3497549,-36.94233,992.3685
0.322131634,-0.1190297,0.1943979,-0.05483768,-0.5337091,0.153597,0.8132354,31.55504,-0.3497549,-36.94233,992.3685
0.324590206,-0.1189923,0.1351037,0.06705386,-0.5337935,0.1527945,0.8039852,31.55504,-0.3497549,-36.94233,992.3685
0.327049732,-0.1189549,0.2535273,-0.05484151,-0.5392056,0.1552192,0.8021653,31.55504,-0.3497549,-36.94233,992.3685
0.329509258,0.004685371,0.1942147,-0.05482431,-0.5323452,0.152844,0.8020328,31.17324,0.6922411,-36.9113,992.3685
0.331967831,0.004683897,0.07568765,0.006130067,-0.53229,0.1546667,0.8088883,31.17324,0.6922411,-36.9113,992.3685
0.334426880,-0.05711907,0.1941299,-0.05480902,-0.5319638,0.167038,0.7995715,31.17324,0.6922411,-36.9113,992.3685
0.339344978,0.004718269,-0.1021199,0.128056,-0.5323768,0.1601372,0.803238,31.17324,0.6922411,-36.9113,992.3685
0.341803551,0.004716795,-0.1020878,0.2498901,-0.5300053,0.1641584,0.7980065,31.17324,0.6922411,-36.9113,992.3685
0.344263077,-0.1188876,0.2533424,0.006062982,-0.5313999,0.1587019,0.8022128,31.17324,0.6922411,-36.9113,992.3685
0.346722126,0.0047527,0.1940298,-0.2376875,-0.5328855,0.1611348,0.8018175,31.17324,0.6922411,-36.9113,992.3685
0.349180698,0.06655266,-0.04296334,-0.0548014,-0.5333208,0.1557234,0.8040752,31.17324,0.6922411,-36.9113,992.3685
0.351640225,-0.0570712,0.1347492,0.006152971,-0.5333064,0.1523205,0.8034805,31.17324,0.6922411,-36.9113,992.3685
0.354098797,-0.1806562,0.1939399,0.06708816,-0.5333166,0.1533045,0.8030266,31.17324,0.6922411,-36.9113,992.3685
0.356558323,-0.118798,-0.1615192,0.3108157,-0.5347216,0.1522075,0.8088294,31.17324,0.6922411,-36.9113,992.3685
0.359016895,-0.05695918,0.1346967,0.06696945,-0.5347549,0.1556467,0.8074833,31.17324,0.6922411,-36.9113,992.3685
0.361475945,0.1902646,0.01618829,0.006011302,-0.5343298,0.1654176,0.806822,31.17324,0.6922411,-36.9113,992.3685
0.363934517,0.1902048,-0.0430498,0.006009442,-0.5342883,0.1605162,0.8081211,31.17324,0.6922411,-36.9113,992.3685
0.366394043,0.06654211,-0.04303623,0.006007582,-0.5367145,0.1570821,0.8080309,31.17324,0.6922411,-36.9113,992.3685
0.368853569,-0.05708175,-0.04302267,0.006005722,-0.5358128,0.1582019,0.8007764,31.17324,0.6922411,-36.9113,992.3685
0.371312142,0.190142,0.1346899,0.006003861,-0.5362559,0.1566626,0.804615,31.17324,0.6922411,-36.9113,992.3685
0.376232624,0.1282017,0.1938197,0.005980957,-0.5358629,0.15878,0.79594,31.17324,0.6922411,-36.9113,992.3712
0.378689289,0.004558496,0.1937588,0.1278534,-0.5352648,0.1552002,0.8050455,31.17324,0.6922411,-36.9113,992.3712
0.381147862,0.12816,-0.04323423,0.1278132,-0.5377476,0.1610361,0.8047675,31.16572,1.071642,-37.28316,992.3712
0.383607388,0.06631831,0.07524543,0.127773,-0.5338609,0.1606385,0.8018096,31.16572,1.071642,-37.28316,992.3712
0.386066437,0.06629749,0.1936878,0.06679575,-0.5318736,0.1601144,0.8046897,31.16572,1.071642,-37.28316,992.3712
0.388525009,0.1280781,0.1343939,0.188649,-0.5333588,0.1591716,0.802244,31.16572,1.071642,-37.28316,992.3712
0.390984535,0.06623641,0.1343516,0.1276526,-0.5386937,0.156144,0.8051039,31.16572,1.071642,-37.28316,992.3712
0.393443108,0.00441411,0.07507636,0.06667542,-0.5333915,0.161645,0.8003815,31.16572,1.071642,-37.28316,992.3712
0.395902634,-0.1191902,-0.04341325,0.1275916,-0.534366,0.160183,0.799857,31.16572,1.071642,-37.28316,992.3712
0.398361683,0.06625163,-0.04339957,0.2494258,-0.535811,0.1620559,0.8033277,31.16572,1.071642,-37.28316,992.3712
0.400820255,0.004429321,-0.0433859,0.1274732,-0.5353265,0.1586937,0.8007882,31.16572,1.071642,-37.28316,992.3712
0.403279781,0.1898323,0.1935599,0.1274331,-0.5329036,0.1602053,0.7993602,31.16572,1.071642,-37.28316,992.3712
0.405738354,-0.05743319,0.01579997,0.1883302,-0.5329253,0.160729,0.797435,31.16572,1.071642,-37.28316,992.3712
0.410656452,0.1280073,-0.04342432,0.1273322,-0.5333474,0.1596318,0.8037152,31.16572,1.071642,-37.28316,992.3712
0.413115501,0.1897685,0.01582235,0.06635505,-0.526934,0.1547608,0.8064196,31.16572,1.071642,-37.28316,992.3695
0.415574074,0.1279074,-0.1026487,0.1882085,-0.5318069,0.1532361,0.8073818,31.16572,1.071642,-37.28316,992.3695
0.418033600,0.1278672,0.07508258,0.1881494,-0.5352702,0.1527993,0.8030264,31.16572,1.071642,-37.28316,992.3695
0.420492649,0.06602558,0.1935251,0.1271532,-0.5348189,0.1528763,0.7991409,31.16572,1.071642,-37.28316,992.3695
0.422951698,0.004203398,-0.04346783,0.06617606,-0.5329041,0.1577954,0.7978263,31.16572,1.071642,-37.28316,992.3695
0.425410748,0.1896065,0.07501183,0.1270924,-0.5344117,0.1675033,0.7996065,31.16572,1.071642,-37.28316,992.3695
0.427869320,0.3749513,0.3119204,0.2489268,-0.5339237,0.1718491,0.8021696,31.16572,1.071642,-37.28316,992.3695
0.430328846,0.1276276,0.2525894,0.2488486,-0.5323764,0.1659227,0.8068222,31.17054,0.3404785,-37.36948,992.3695
0.432787418,0.003984609,0.2525101,0.1268961,-0.5332929,0.1532591,0.8054526,31.17054,0.3404785,-37.36948,992.3695
0.435246945,0.1275863,0.3708969,0.2487305,-0.5328756,0.1543653,0.7986872,31.17054,0.3404785,-37.36948,992.3695
0.437705994,0.3129506,0.1338483,0.2486524,-0.5367678,0.1557378,0.8016764,31.17054,0.3404785,-37.36948,992.3695
0.440164566,0.2510509,0.1930392,0.004825691,-0.5382845,0.1587125,0.7983854,31.17054,0.3404785,-37.36948,992.3695
0.442624092,0.1891705,0.07451254,0.1266984,-0.5328563,0.1601146,0.8042122,31.17054,0.3404785,-37.36948,992.3695
0.445082665,0.2509126,0.1337221,0.3094701,-0.5294344,0.1620771,0.8052181,31.17054,0.3404785,-37.36948,992.3695
0.450000763,0.3124788,0.1336195,0.004609089,-0.533805,0.1523343,0.802514,31.17054,0.3404785,-37.36948,992.3695
0.452459812,0.06517472,0.01511149,0.1264819,-0.532843,0.151892,0.8005497,31.17054,0.3404785,-37.36948,992.3739
0.454918385,0.1269557,-0.04412625,0.2483165,-0.5313889,0.1567522,0.8021502,31.17054,0.3404785,-37.36948,992.3739
0.457377911,0.3123202,0.1928197,0.2482385,-0.5333521,0.1596409,0.80323,31.17054,0.3404785,-37.36948,992.3739
0.459836960,0.2504206,0.1335262,0.1262862,-0.5323957,0.1601734,0.8012971,31.17054,0.3404785,-37.36948,992.3739
0.462296009,0.3121434,0.1334842,0.06530937,-0.5343968,0.1665103,0.8005457,31.17054,0.3404785,-37.36948,992.3739
0.464755058,0.1266409,-0.04425678,0.126226,-0.5343568,0.1635405,0.8028778,31.17054,0.3404785,-37.36948,992.3739
0.467213631,0.3120055,-0.04424288,0.3089978,-0.5298327,0.1575589,0.811874,31.17054,0.3404785,-37.36948,992.3739
0.469673157,0.1265031,0.07423712,0.1870265,-0.5303828,0.1600823,0.8071041,31.17054,0.3404785,-37.36948,992.3739
0.472131729,0.1264634,0.07421385,0.2479049,-0.5363403,0.1558601,0.7953649,31.17054,0.3404785,-37.36948,992.3739
0.474591255,-0.05898076,0.07419056,0.1259527,-0.5363148,0.1596688,0.8003421,31.17054,0.3404785,-37.36948,992.3739
0.477050305,0.1882437,0.1926333,0.2477874,-0.5337351,0.1473785,0.8067243,31.17054,0.3404785,-37.36948,992.3739
0.479508877,0.3117875,0.07410671,0.3086466,-0.5358068,0.1596369,0.802279,31.17604,0.3255965,-36.92254,992.3739
0.481968403,0.249888,0.1333164,0.3694868,-0.5343901,0.1669796,0.8015317,31.17604,0.3255965,-36.92254,992.3739
0.484426975,0.2498095,0.1332745,0.2474965,-0.5334505,0.1680268,0.7981588,31.17604,0.3255965,-36.92254,992.3739
0.486886025,0.1261281,0.01476658,0.1255444,-0.5305116,0.1680443,0.7986208,31.17604,0.3255965,-36.92254,992.3739
0.491804123,0.1260294,-0.04453152,0.1864218,-0.533408,0.1679451,0.8025257,31.17604,0.3255965,-36.92254,992.3739
0.494263649,0.06418837,-0.0445175,0.1254261,-0.5347502,0.1556376,0.8079685,31.17604,0.3255965,-36.92254,992.3721
0.496722221,0.06416821,0.1331956,0.1253867,-0.5284702,0.1553619,0.7996541,31.17604,0.3255965,-36.92254,992.3721
0.499181271,0.1259495,0.07392069,-0.0574641,-0.5353758,0.158306,0.7954353,31.17604,0.3255965,-36.92254,992.3721
0.501640320,0.12591,0.1331305,0.06442825,-0.5363278,0.1611401,0.7999038,31.17604,0.3255965,-36.92254,992.3721
0.504099369,0.1876719,-0.1038434,0.1862823,-0.5358787,0.1641144,0.7975677,31.17604,0.3255965,-36.92254,992.3721
0.506557942,0.1258115,0.07388837,0.003412375,-0.5314891,0.1704453,0.8001624,31.17604,0.3255965,-36.92254,992.3721
0.509017468,0.06397046,-0.04460091,0.1252856,-0.532363,0.1668613,0.8087943,31.17604,0.3255965,-36.92254,992.3721
0.511476040,0.002148923,-0.1038199,-0.05756519,-0.5342745,0.1547034,0.8059925,31.17604,0.3255965,-36.92254,992.3721
0.513935089,0.002148275,0.1331449,0.003390052,-0.5328912,0.1563241,0.7982646,31.17604,0.3255965,-36.92254,992.3721
0.516394615,0.002147627,0.07387006,0.1252633,-0.5338808,0.155855,0.7968011,31.17604,0.3255965,-36.92254,992.3721
0.518853187,-0.1832574,0.01461378,0.1252239,-0.5353308,0.1611127,0.8018369,31.17604,0.3255965,-36.92254,992.3721
0.521312714,-0.05959691,0.07384226,0.2470588,-0.5343668,0.1611487,0.8003736,31.17604,0.3255965,-36.92254,992.3721
0.526230335,0.002203164,0.1330847,0.1859665,-0.5309078,0.1640044,0.8057775,31.17604,0.3255965,-36.92254,992.3721
0.528689384,-0.1214005,-0.04465617,0.06403382,-0.5371909,0.158982,0.8105235,31.16852,0.7049971,-37.29439,992.3721
0.531148434,0.002240602,0.01459084,0.003076544,-0.5323793,0.1572489,0.8012033,31.16852,0.7049971,-37.29439,992.3721
0.533607960,-0.121363,0.01458621,-0.05786155,-0.5309345,0.1587517,0.7997829,31.16852,0.7049971,-37.29439,992.3748
0.536066532,0.002278039,-0.04465142,-0.05784336,-0.5339273,0.1641411,0.7970671,31.16852,0.7049971,-37.29439,992.3748
0.538525581,-0.1213256,0.01459559,0.06404911,-0.5314419,0.1611934,0.7993798,31.16852,0.7049971,-37.29439,992.3748
0.540984630,0.06411691,-0.103875,0.1249661,-0.5333549,0.1601283,0.8032457,31.16852,0.7049971,-37.29439,992.3748
0.543443680,-0.05950618,0.07385673,-0.05788457,-0.5378292,0.1597462,0.7955016,31.16852,0.7049971,-37.29439,992.3748
0.545902252,0.002314003,0.07383355,-0.1188035,-0.5358509,0.1616501,0.7989451,31.16852,0.7049971,-37.29439,992.3748
0.548361778,0.1259162,0.07381038,-0.05782906,-0.5377967,0.1572728,0.7973641,31.16852,0.7049971,-37.29439,992.3748
0.550820827,-0.1213292,-0.1039119,0.1859377,-0.5373066,0.162097,0.8004281,31.16852,0.7049971,-37.29439,992.3748
0.553279400,-0.121291,-0.1631122,0.06400499,-0.534297,0.1595686,0.8066342,31.16852,0.7049971,-37.29439,992.3748
0.555738926,-0.05945147,0.01463808,0.003047768,-0.5352892,0.1562113,0.803136,31.16852,0.7049971,-37.29439,992.3748
0.558197498,-0.05943278,0.1330996,0.06398395,-0.5353106,0.1533593,0.7991604,31.16852,0.7049971,-37.29439,992.3748
0.560657024,0.1259903,0.07382474,0.2467753,-0.5353276,0.1538739,0.7977204,31.16852,0.7049971,-37.29439,992.3748
0.565574646,0.1259112,-0.1631352,0.0638471,-0.5308765,0.160087,0.8066227,31.16852,0.7049971,-37.29439,992.3748
0.568034172,0.0640701,0.1330812,0.06382705,-0.5367837,0.1610722,0.8033041,31.16852,0.7049971,-37.29439,992.3748
0.570492744,0.06405,0.01457332,0.1856813,-0.5314161,0.1582507,0.8002564,31.16852,0.7049971,-37.29439,992.3748
0.572952270,0.06402989,0.01456869,0.1246858,-0.5324275,0.161681,0.7989181,31.16852,0.7049971,-37.29439,992.3748
0.575410843,0.06400979,0.01456417,0.1855838,-0.5319414,0.1655485,0.8009802,31.16852,0.7049971,-37.29439,992.3714
0.577869892,0.002188189,-0.1631394,0.1855255,-0.5309131,0.1616036,0.8037585,31.17054,0.3404785,-37.36948,992.3714
0.580328464,-0.1214154,0.01461084,0.2464043,-0.5314447,0.1616808,0.7993955,31.17054,0.3404785,-37.36948,992.3714
0.582787990,0.2494315,0.01460621,0.06351551,-0.5308532,0.1542561,0.8054645,31.17054,0.3404785,-37.36948,992.3714
0.585249424,0.2493531,0.1330677,0.1244327,-0.5328902,0.1611439,0.8013323,31.17054,0.3404785,-37.36948,992.3714
0.587706089,0.002068919,0.1922589,0.002519286,-0.5343162,0.1629805,0.8067437,31.17054,0.3404785,-37.36948,992.3714
0.590165138,0.1874727,0.07373241,0.06345564,-0.5343884,0.1616724,0.7984484,31.17054,0.3404785,-37.36948,992.3714
0.592623711,0.06381086,0.01447624,0.0634357,-0.5368135,0.1630581,0.8014259,31.17054,0.3404785,-37.36948,992.3714
0.595083237,0.1255923,0.2514038,0.06341576,-0.5357441,0.1609631,0.809604,31.17054,0.3404785,-37.36948,992.3714
0.597541809,0.1255529,0.07362572,0.124333,-0.530407,0.1577178,0.8031442,31.17054,0.3404785,-37.36948,992.3714
0.600001335,0.001910501,-0.04486344,0.1242939,-0.5303858,0.1547842,0.8035355,31.17054,0.3404785,-37.36948,992.3714
0.602460384,0.1255128,0.07361668,0.3070663,-0.5328048,0.1576049,0.8080156,31.17054,0.3404785,-37.36948,992.3714
0.604918957,0.1254734,0.07359351,0.1850955,-0.5333239,0.1629621,0.8081916,31.17054,0.3404785,-37.36948,992.3714
0.607378483,0.001831027,0.01433735,0.2459745,-0.5368496,0.1669847,0.8000955,31.17054,0.3404785,-37.36948,992.3714
0.609837055,0.1254334,0.07356583,0.124023,-0.5402394,0.1601389,0.7994182,31.17054,0.3404785,-37.36948,992.3714
0.612296581,0.06359249,-0.1041563,0.06304685,-0.5362549,0.1523212,0.8020481,31.17054,0.3404785,-37.36948,992.3714
0.617214203,0.125354,-0.04489508,0.1239061,-0.5343215,0.1605797,0.8047247,31.17054,0.3404785,-37.36948,992.3723
0.619672775,0.1253146,-0.04488096,0.1238671,-0.5343215,0.1605797,0.8047247,31.17054,0.3404785,-37.36948,992.3723
0.622132301,0.06347381,0.07359917,0.1238282,-0.5323422,0.1581421,0.8056014,31.17054,0.3404785,-37.36948,992.3723
0.624591827,0.1252553,-0.04489,0.06285217,-0.5342879,0.1537649,0.8040203,31.17054,0.3404785,-37.36948,992.3723
0.627050400,0.2488189,0.01435713,-0.05904187,-0.5309746,0.1617215,0.7974508,31.16852,0.7049971,-37.29439,992.3723
0.629509449,0.1869393,0.2512847,0.2456624,-0.5373155,0.164525,0.8009915,31.16852,0.7049971,-37.29439,992.3723
0.631968021,0.06327766,0.1919727,0.1237109,-0.5372974,0.1654545,0.8034489,31.16852,0.7049971,-37.29439,992.3723
0.634427547,0.1868607,-0.04501973,0.2455464,-0.5329011,0.1630935,0.8013949,31.16852,0.7049971,-37.29439,992.3723
0.636886120,0.3104049,0.0734605,0.3064064,-0.5338011,0.1566666,0.805566,31.16852,0.7049971,-37.29439,992.3723
0.639345646,0.2485059,0.1919034,0.1844358,-0.5377526,0.1552597,0.800698,31.16852,0.7049971,-37.29439,992.3723
0.641804695,0.1248249,0.0733771,0.3671893,-0.533356,0.1553085,0.800178,31.16852,0.7049971,-37.29439,992.3723
0.644263267,0.1865872,0.132587,0.2451997,-0.5348641,0.1626065,0.8004244,31.16852,0.7049971,-37.29439,992.3723
0.649181366,0.2482131,0.1325037,0.2450456,-0.5304686,0.1612113,0.7988869,31.16852,0.7049971,-37.29439,992.3723
0.651640892,0.1863337,0.07322904,0.42778,-0.5309151,0.1611253,0.8032576,31.16852,0.7049971,-37.29439,992.3723
0.654099464,0.06267223,0.07320599,0.4276456,-0.5352932,0.1552546,0.8021343,31.16852,0.7049971,-37.29439,992.3689
0.656558514,0.248057,0.07318293,0.3665741,-0.5343295,0.1586663,0.8027213,31.16852,0.7049971,-37.29439,992.3689
0.659017086,0.3097805,0.07315999,0.4273961,-0.5337857,0.1580835,0.808039,31.16852,0.7049971,-37.29439,992.3689
0.661476612,0.1242788,0.250836,0.2444504,-0.5353158,0.1601197,0.802776,31.16852,0.7049971,-37.29439,992.3689
0.663936138,0.1860412,0.2507573,0.1834365,-0.5309462,0.1616671,0.8003621,31.16852,0.7049971,-37.29439,992.3689
0.666394710,0.3095857,0.0729794,0.4271274,-0.5352691,0.1576191,0.8060942,31.16852,0.7049971,-37.29439,992.3689
0.668853760,0.3094884,0.01372346,0.305119,-0.5352574,0.1547037,0.8055151,31.16852,0.7049971,-37.29439,992.3689
0.671312332,0.1857883,0.1321852,0.0003374007,-0.5338899,0.1616587,0.7994149,31.16852,0.7049971,-37.29439,992.3689
0.673771858,0.3711343,0.2506097,0.06127445,-0.5353287,0.161591,0.8023377,31.16852,0.7049971,-37.29439,992.3689
0.676230431,0.2474148,0.0728318,0.3050038,-0.5318532,0.1581466,0.8055975,31.5471,0.6890716,-36.91049,992.3689
0.678689957,0.1237341,0.132042,0.1830337,-0.5347947,0.1552408,0.8031008,31.5471,0.6890716,-36.91049,992.3689
0.681149006,0.3090996,0.1320005,0.2439133,-0.5339007,0.1602327,0.7974271,31.5471,0.6890716,-36.91049,992.3689
0.683607578,0.3090025,0.131959,0.1828995,-0.5318621,0.1605746,0.806161,31.5471,0.6890716,-36.91049,992.3689
0.686067104,0.3089054,-0.04578156,0.1219049,-0.5289656,0.1606737,0.8022561,31.5471,0.6890716,-36.91049,992.3689
0.690985203,0.1233652,0.1911792,0.3046015,-0.5333849,0.1654899,0.8034179,31.5471,0.6890716,-36.91049,992.3689
0.693443775,0.1851279,0.1318861,0.1826315,-0.5333494,0.1591535,0.8032144,31.5471,0.6890716,-36.91049,992.3689
0.695902824,0.1232682,-0.04585434,0.1825741,-0.5343429,0.1577277,0.8007491,31.5471,0.6890716,-36.91049,992.3712
0.698362350,0.1232295,-0.04583999,0.2434539,-0.5333751,0.1587205,0.8002875,31.5471,0.6890716,-36.91049,992.3712
0.700820923,0.1849923,0.07264047,0.1215031,-0.5329073,0.1650341,0.8019428,31.5471,0.6890716,-36.91049,992.3712
0.703279972,0.2467356,0.2503167,0.1824021,-0.5368291,0.1650169,0.8010032,31.5471,0.6890716,-36.91049,992.3712
0.705739021,0.1230552,0.1317721,0.1823448,-0.5279646,0.161603,0.8051909,31.5471,0.6890716,-36.91049,992.3712
0.708198070,0.06121505,0.01326463,0.1213504,-0.5313941,0.1635126,0.8057657,31.5471,0.6890716,-36.91049,992.3712
0.710656643,0.06119583,0.07249344,0.1213123,-0.5319375,0.1665052,0.8019819,31.5471,0.6890716,-36.91049,992.3712
0.713116169,0.246581,0.01323762,-0.0006001594,-0.5347981,0.156694,0.803633,31.5471,0.6890716,-36.91049,992.3712
0.715575218,0.06109914,0.1316995,-0.1224743,-0.5411869,0.1571784,0.8007877,31.5471,0.6890716,-36.91049,992.3712
0.718034744,-0.0007215157,0.01319207,-0.06149864,-0.5377583,0.1596101,0.8027797,31.5471,0.6890716,-36.91049,992.3712
0.720498562,0.1228817,0.01318789,0.1822692,-0.5285171,0.1612381,0.7983862,31.5471,0.6890716,-36.91049,992.3712
0.722951889,0.122843,-0.1052823,0.0603377,-0.5309842,0.1651153,0.7985308,31.5471,0.6890716,-36.91049,992.3712
0.725411415,0.06100298,0.1909159,-0.0006183839,-0.5372753,0.1581795,0.8012732,30.80924,0.01047273,-36.54962,992.3712
0.727869987,0.1227853,0.07238992,-0.0006181805,-0.5363072,0.1557966,0.7987612,30.80924,0.01047273,-36.54962,992.3712
0.732788563,0.1845097,0.07236303,0.1212373,-0.5319136,0.1630842,0.8023576,30.80924,0.01047273,-36.54962,992.3712
0.735247135,-0.06275418,0.01310731,-0.000675034,-0.5323603,0.1663738,0.8087786,30.80924,0.01047273,-36.54962,992.3678
0.737706661,-0.0009329945,0.01310324,-0.06161197,-0.5382233,0.1528091,0.8011088,30.80924,0.01047273,-36.54962,992.3678
0.740165234,-0.06273419,0.07233217,-0.1225297,-0.5319077,0.1553581,0.7982255,30.80924,0.01047273,-36.54962,992.3678
0.742624283,-0.0627145,-0.1053896,-0.1224913,-0.532334,0.1566799,0.8055544,30.80924,0.01047273,-36.54962,992.3678
0.745083332,-0.0008933164,0.1315756,-0.0005785051,-0.5353411,0.1654722,0.8034334,30.80924,0.01047273,-36.54962,992.3678
0.747542381,-0.06269451,0.1907673,-0.1833897,-0.5329158,0.1607109,0.7984055,30.80924,0.01047273,-36.54962,992.3678
0.750000954,-0.00087333,-0.04622469,-0.122395,-0.5353149,0.1557783,0.8002092,30.80924,0.01047273,-36.54962,992.3678
0.752460480,-0.0008730352,0.07225589,0.1823292,-0.5372756,0.1615552,0.8033236,30.80924,0.01047273,-36.54962,992.3678
0.754919529,-0.1244757,0.07223317,-0.06147666,-0.5328375,0.1600783,0.8061531,30.80924,0.01047273,-36.54962,992.3678
0.757378578,-0.0008337109,0.01297746,-0.1223945,-0.5378202,0.1664793,0.8005728,30.80924,0.01047273,-36.54962,992.3678
0.759837627,-0.1244364,0.01297339,-0.06141891,-0.5362952,0.1586667,0.8017664,30.80924,0.01047273,-36.54962,992.3678
0.762296200,-0.1243973,-0.04626368,-0.06139961,-0.535728,0.1522531,0.8059259,30.80924,0.01047273,-36.54962,992.3678
0.764755726,0.1228476,0.0129839,-0.0004431727,-0.5372489,0.1576467,0.8036836,30.80924,0.01047273,-36.54962,992.3678
0.767214298,0.122809,-0.1054863,0.06049411,-0.5372462,0.1571593,0.803668,30.80924,0.01047273,-36.54962,992.3678
0.769673347,0.06096896,-0.1054532,0.2432865,-0.5328413,0.155746,0.803101,30.80924,0.01047273,-36.54962,992.3678
0.772132873,0.1227513,-0.10542,-0.0005384518,-0.53432,0.1586481,0.8036917,30.80924,0.01047273,-36.54962,992.3678
0.774591446,0.06091124,-0.1053869,0.06039886,-0.5348384,0.1630395,0.8033512,30.80924,0.01047273,-36.54962,992.3704
0.777050972,0.1226936,0.07234528,-0.0005572577,-0.5289893,0.1607191,0.7998301,31.5499,0.322427,-36.92173,992.3704
0.779509544,0.122655,0.07232256,0.06038005,-0.5333405,0.1567255,0.8026509,31.5499,0.322427,-36.92173,992.3704
0.781968594,0.06081503,-0.1053993,0.06036107,-0.5313664,0.1518871,0.8015085,31.5499,0.322427,-36.92173,992.3704
0.786886692,0.1843604,-0.1646032,0.1212412,-0.5357844,0.1581474,0.8036876,31.5499,0.322427,-36.92173,992.3704
0.789346218,0.1843025,-0.1645515,0.1212031,-0.5323633,0.1610757,0.8052101,31.5499,0.322427,-36.92173,992.3704
0.791804790,0.06064163,-0.1052667,0.06022786,-0.5338554,0.1596637,0.8017783,31.5499,0.322427,-36.92173,992.3704
0.794263840,-0.1247818,0.07246541,0.1820832,-0.5324246,0.157818,0.7968521,31.5499,0.322427,-36.92173,992.3704
0.796722889,-0.1247426,-0.04602341,0.2429632,-0.5313928,0.1524199,0.7990981,31.5499,0.322427,-36.92173,992.3704
0.799181938,0.1225024,-0.223708,0.1819497,-0.5338547,0.1586979,0.8012618,31.5499,0.322427,-36.92173,992.3704
0.801640511,0.1842654,-0.1051718,0.1818925,-0.535336,0.1587118,0.7998178,31.5499,0.322427,-36.92173,992.3704
0.804100037,0.1224061,0.1317935,0.2427725,-0.5333618,0.1630347,0.80431,31.5499,0.322427,-36.92173,992.3704
0.806559086,0.1223677,0.07251898,0.2426962,-0.5367817,0.1615505,0.8038049,31.5499,0.322427,-36.92173,992.3704
0.809017658,0.1223292,0.07249615,-0.06206572,-0.531387,0.1572306,0.8026511,31.5499,0.322427,-36.92173,992.3704
0.811477184,0.1222908,0.01324033,-0.1229834,-0.5357939,0.1581656,0.8027172,31.5499,0.322427,-36.92173,992.3704
0.813935757,0.3076568,0.07246915,0.1208039,-0.5358854,0.1636451,0.7965817,31.5499,0.322427,-36.92173,992.3704
0.818853855,0.2456232,0.1316567,0.3035011,-0.533428,0.1631617,0.7975171,31.5499,0.322427,-36.92173,992.367
0.821318626,0.1837446,0.07238235,0.2424686,-0.5368433,0.1650441,0.7995476,31.5499,0.322427,-36.92173,992.367
0.823772430,0.3690913,0.07235963,0.2423924,-0.5352352,0.1565899,0.8089741,31.5499,0.322427,-36.92173,992.367
0.826231003,0.2453724,-0.1053622,0.3641905,-0.5328352,0.157181,0.8046036,31.16763,1.42553,-36.88883,992.367
0.828690529,0.2452954,-0.1645621,0.2422018,-0.5323795,0.1606246,0.8032537,31.16763,1.42553,-36.88883,992.367
0.831149101,0.05981388,-0.1052773,-0.001622796,-0.5299322,0.1611251,0.8037351,31.16763,1.42553,-36.88883,992.367
0.833608150,0.05979507,-0.1052442,0.1811891,-0.5328822,0.1630572,0.8033357,31.16763,1.42553,-36.88883,992.367
0.836066723,0.3069822,-0.1052111,0.1811322,-0.5328416,0.1624973,0.8072017,31.16763,1.42553,-36.88883,992.367
0.838526249,0.2450843,0.07252102,0.1810753,-0.5387106,0.1566586,0.8036639,31.16763,1.42553,-36.88883,992.367
0.840985775,0.3068088,0.01326519,0.3028927,-0.5324124,0.1573124,0.7978068,31.16763,1.42553,-36.88883,992.367
0.843444347,0.121308,-0.105205,0.3027976,-0.5328462,0.1591307,0.8046662,31.16763,1.42553,-36.88883,992.367
0.845903397,0.1212699,0.1317602,0.546451,-0.5338108,0.1600604,0.806646,31.16763,1.42553,-36.88883,992.367
0.848361969,0.1212318,0.2501849,0.3025307,-0.53538,0.160725,0.7964839,31.16763,1.42553,-36.88883,992.367
0.850821495,0.05939222,0.0131741,0.1805614,-0.531881,0.1606109,0.8042201,31.16763,1.42553,-36.88883,992.367
0.853280067,0.121175,0.131636,0.2414418,-0.5338385,0.1591491,0.8032183,31.16763,1.42553,-36.88883,992.367
0.858198166,0.244663,0.01318032,0.2413093,-0.5334609,0.1598495,0.7920703,31.16763,1.42553,-36.88883,992.3697
0.860657215,0.1827847,-0.1052899,0.4240449,-0.5338997,0.1558913,0.7948602,31.16763,1.42553,-36.88883,992.3697
0.863116741,0.2445287,-0.04602375,0.3629746,-0.5314113,0.1582417,0.8007416,31.16763,1.42553,-36.88883,992.3697
0.865575314,0.1826504,-0.1052423,0.2409863,-0.5337747,0.1561338,0.8079764,31.16763,1.42553,-36.88883,992.3697
0.868034840,0.1207916,-0.1644423,0.3627849,-0.5298989,0.1576859,0.8050811,31.16763,1.42553,-36.88883,992.3697
0.870493412,0.1207536,-0.04592452,0.3626709,-0.5334193,0.1641093,0.799004,31.16763,1.42553,-36.88883,992.3697
0.872952461,0.1207157,0.01332294,0.2406827,-0.5314217,0.1626012,0.8023381,31.16763,1.42553,-36.88883,992.3697
0.875411034,0.1824792,0.01331876,0.1796699,-0.5333402,0.162511,0.8062352,31.16582,0.3532345,-37.75257,992.3697
0.877870560,0.1824219,0.07254758,0.1796135,-0.5357048,0.158959,0.8124527,31.16582,0.3532345,-37.75257,992.3697
0.880330086,0.2441661,0.01329175,0.3014313,-0.5348611,0.1587435,0.7983583,31.16582,0.3532345,-37.75257,992.3697
0.882788658,0.4912952,-0.04594543,0.3622738,-0.5329397,0.1641318,0.7980297,31.16582,0.3532345,-37.75257,992.3697
0.885247707,0.1821335,-0.1051641,0.1793485,-0.5342769,0.1609764,0.8095924,31.16582,0.3532345,-37.75257,992.3697
0.890165806,-0.003327002,0.1318155,0.05732328,-0.5324113,0.1621322,0.8008745,31.16582,0.3532345,-37.75257,992.3697
0.892624378,0.2438799,-0.04592497,0.1791796,-0.5323695,0.1630163,0.8057578,31.16582,0.3532345,-37.75257,992.3697
0.895083904,0.2438033,0.01332249,0.3009976,-0.5348355,0.1591765,0.8012852,31.16582,0.3532345,-37.75257,992.3697
0.897542953,-0.00347917,0.1910174,0.1790287,-0.5372756,0.1615552,0.8033236,31.16582,0.3532345,-37.75257,992.368
0.900001526,0.05832338,0.1317244,0.3617839,-0.5333519,0.1562652,0.8011796,31.16582,0.3532345,-37.75257,992.368
0.902461052,0.305511,0.190916,0.2397959,-0.5314539,0.1583233,0.7963747,31.16582,0.3532345,-37.75257,992.368
0.904919624,0.05820912,0.01315692,0.2397206,-0.53096,0.1674799,0.8024907,31.16582,0.3532345,-37.75257,992.368
0.907379150,0.1199923,0.1316188,0.1787081,-0.5318769,0.1581919,0.8031715,31.16582,0.3532345,-37.75257,992.368
0.909837723,0.1199546,0.01311149,0.1177148,-0.5299234,0.1620727,0.805222,31.16582,0.3532345,-37.75257,992.368
0.912296772,0.1199169,-0.1053587,0.178615,-0.5319303,0.1602232,0.7988672,31.16582,0.3532345,-37.75257,992.368
0.914756298,0.05807777,-0.2237917,0.239496,-0.5309892,0.1593389,0.7944613,31.16582,0.3532345,-37.75257,992.368
0.917214870,0.05805955,-0.1052553,0.05660938,-0.5309081,0.1582189,0.8021933,31.16582,0.3532345,-37.75257,992.368
0.919674396,0.1198428,-0.04598917,0.1175287,-0.5308899,0.1591484,0.8046507,31.16582,0.3532345,-37.75257,992.368
0.922132969,-0.003797833,-0.1052077,0.05655468,-0.5324128,0.1640637,0.8019076,31.16582,0.3532345,-37.75257,992.368
0.924592018,-0.1273996,-0.1051747,-0.06533738,-0.5338609,0.1606385,0.8018096,31.5471,0.6890716,-36.91049,992.368
0.929510117,0.05806539,0.01328305,-0.004416613,-0.5348382,0.1596639,0.8013008,31.5471,0.6890716,-36.91049,992.368
0.931969166,0.05804717,-0.04595413,-0.06535236,-0.5372618,0.1591181,0.8032454,31.5471,0.6890716,-36.91049,992.368
0.934428215,0.05802896,0.07252633,-0.126269,-0.535819,0.1601425,0.8013242,31.5471,0.6890716,-36.91049,992.368
0.936887264,-0.003790758,0.1909696,0.05658212,-0.5319167,0.1577861,0.798789,31.5471,0.6890716,-36.91049,992.369
0.939345837,0.05801192,0.01321049,0.1175015,-0.5294395,0.1563006,0.8011487,31.5471,0.6890716,-36.91049,992.369
0.941805363,0.1197951,0.1316724,0.05652744,-0.5367613,0.1595827,0.8047128,31.5471,0.6890716,-36.91049,992.369
0.944263935,0.1197575,-0.105301,-0.004427454,-0.5338737,0.1621098,0.8013713,31.5471,0.6890716,-36.91049,992.369
0.946723461,0.05791841,-0.04603494,-0.004426059,-0.5339226,0.1641321,0.7975522,31.5471,0.6890716,-36.91049,992.369
0.949182510,0.05790019,0.07244564,0.1783867,-0.5387365,0.1596013,0.8027874,31.5471,0.6890716,-36.91049,992.369
0.951641083,-0.1893239,0.01318981,-0.06541787,-0.5372843,0.1606075,0.8018367,31.5471,0.6890716,-36.91049,992.369
0.954100609,-0.06566147,-0.04604737,0.1174141,-0.5319296,0.1592575,0.7983508,31.5471,0.6890716,-36.91049,992.369
0.956559181,0.0579621,0.01320009,-0.004497039,-0.5358834,0.1641234,0.7970826,31.5471,0.6890716,-36.91049,992.369
0.959018230,-0.1274605,-0.04603708,-0.06543278,-0.5348148,0.1629942,0.8057772,31.5471,0.6890716,-36.91049,992.369
0.963936329,-0.003758096,-0.2829216,0.05646347,-0.5338372,0.1605932,0.8042356,31.5471,0.6890716,-36.91049,992.369
0.966394901,-0.06555841,0.01333243,-0.0044914,-0.529991,0.1607555,0.7974117,31.5471,0.6890716,-36.91049,992.369
0.968854427,-0.1273393,-0.2236038,-0.1263643,-0.5334227,0.1655625,0.7995362,31.5471,0.6890716,-36.91049,992.369
0.971313477,-0.003696309,-0.1643006,-0.1263246,-0.5309522,0.1602321,0.7988595,31.5471,0.6890716,-36.91049,992.369
0.973772526,-0.00369513,-0.1050159,-0.1262849,-0.5348178,0.1576961,0.8022087,30.79186,1.074811,-37.28397,992.369
0.976231575,-0.003693951,0.01348319,0.05656619,-0.5314057,0.1538912,0.7986599,30.79186,1.074811,-37.28397,992.369
0.978690147,-0.06549426,-0.1642201,0.05654843,-0.5344009,0.1563924,0.7939093,30.79186,1.074811,-37.28397,992.369
0.981149673,-0.003672195,-0.1049354,0.05653067,-0.5352529,0.1580702,0.8080506,30.79186,1.074811,-37.28397,992.369
0.983608246,0.05813042,0.1320297,-0.1262985,-0.5357593,0.1561706,0.8050807,30.79186,1.074811,-37.28397,992.369
0.986067772,-0.06549079,0.1319882,-0.187196,-0.5347893,0.154266,0.8030695,30.79186,1.074811,-37.28397,992.369
0.988526821,-0.1272717,-0.1642184,-0.06526286,-0.5304244,0.1558225,0.8001704,30.79186,1.074811,-37.28397,992.369
0.990985394,-0.06543024,-0.1049338,-0.004305202,-0.5323951,0.1625833,0.802831,30.79186,1.074811,-37.28397,992.369
0.993445396,-0.1890126,-0.04566776,-0.004303836,-0.5304459,0.1655074,0.8038798,30.79186,1.074811,-37.28397,992.369
0.995903492,0.05825258,-0.2233525,-0.06523964,-0.532419,0.1660043,0.8024554,30.79186,1.074811,-37.28397,992.369
1.000821590,0.05825476,-0.1047648,-0.1261358,-0.5377678,0.1596283,0.8018093,30.79186,1.074811,-37.28397,992.369
1.003280640,-0.06536651,-0.1639649,-0.2479704,-0.5353313,0.1587028,0.800303,30.79186,1.074811,-37.28397,992.369
1.005740166,-0.003544495,0.07301873,-0.3088297,-0.5362952,0.1586667,0.8017664,30.79186,1.074811,-37.28397,992.369
1.008198738,0.1200596,-0.04547032,-0.06498408,-0.5318611,0.1562332,0.8035941,30.79186,1.074811,-37.28397,992.369
1.010657787,0.05822039,-0.2231551,-0.06496368,-0.5343802,0.1602102,0.7984014,30.79186,1.074811,-37.28397,992.369
1.013116837,0.05820211,-0.0453859,-0.1868176,-0.5363414,0.1635772,0.7999821,30.79186,1.074811,-37.28397,992.369
1.015575886,-0.06541909,-0.1638377,-0.1258217,-0.5343065,0.1595867,0.8056638,30.79186,1.074811,-37.28397,992.369
1.018034458,-0.2508029,-0.04532013,-0.1867193,-0.5363076,0.1625479,0.8028619,30.79186,1.074811,-37.28397,992.3716
1.020493984,-0.1271212,0.07316022,-0.1866607,-0.534847,0.1587163,0.7998139,30.79186,1.074811,-37.28397,992.3716
1.022953033,0.1201246,-0.04532883,-0.2475392,-0.5353616,0.1582788,0.7968909,30.79938,0.6954105,-36.91211,992.3716
1.025411606,-0.06531751,-0.2230137,-0.06465,-0.5300128,0.1646549,0.7975369,30.79938,0.6954105,-36.91211,992.3716
1.027871132,0.1819089,0.01398848,-0.06462968,-0.5314047,0.158711,0.8017277,30.79938,0.6954105,-36.91211,992.3716
1.032789230,-0.003512717,-0.3413813,-0.003632813,-0.5328716,0.155322,0.7996889,30.79938,0.6954105,-36.91211,992.3716
1.035247803,-0.003511596,-0.1635749,-0.2473802,-0.5342981,0.1547488,0.8035665,30.79938,0.6954105,-36.91211,992.3716
1.037706852,-0.06531197,-0.1635235,-0.1254282,-0.5343053,0.1610308,0.8066812,30.79938,0.6954105,-36.91211,992.3716
1.040166378,-0.003489959,-0.1634721,-0.06445168,-0.5319218,0.1645465,0.8024045,30.79938,0.6954105,-36.91211,992.3716
1.042624950,-0.003488839,-0.04495464,-0.003494283,-0.532387,0.1611211,0.802784,30.79938,0.6954105,-36.91211,992.3716
1.045084476,-0.1270907,0.1327586,-0.06443032,-0.5299523,0.1597172,0.8007769,30.79938,0.6954105,-36.91211,992.3716
1.047543049,0.05835363,-0.2226813,-0.2472215,-0.5363312,0.1625933,0.800436,30.79938,0.6954105,-36.91211,992.3716
1.050002098,-0.0034662,-0.04491226,-0.003395255,-0.5313979,0.1591803,0.8027137,30.79938,0.6954105,-36.91211,992.3716
1.052461147,-0.06526657,0.01433486,-0.06433132,-0.5323564,0.1581693,0.8041458,30.79938,0.6954105,-36.91211,992.3716
1.054920197,-0.06524605,0.1327965,-0.003373978,-0.5338372,0.1605932,0.8042356,30.79938,0.6954105,-36.91211,992.3716
1.057379723,-0.003424104,0.07352175,-0.06431007,-0.5343538,0.1596774,0.8008117,30.79938,0.6954105,-36.91211,992.3716
1.059838295,-0.003423043,-0.2818995,-0.125227,-0.5352805,0.1571589,0.8046229,30.79938,0.6954105,-36.91211,992.3716
1.064755917,-0.0652029,-0.0447902,-0.307998,-0.5318885,0.1611074,0.8037506,30.79938,0.6954105,-36.91211,992.3716
1.067215443,-0.06518244,-0.1040092,-0.1250899,-0.5328602,0.1557823,0.8011602,30.79938,0.6954105,-36.91211,992.3716
1.069674015,-0.1269634,-0.04474353,-0.06411344,-0.5343204,0.1528626,0.8001075,30.79938,0.6954105,-36.91211,992.3716
1.072133541,-0.1269235,-0.1631955,0.05778098,-0.5357526,0.1566398,0.8060668,30.79938,0.6954105,-36.91211,992.3716
1.074592114,0.1203223,-0.04467821,-0.1250486,-0.5362825,0.160571,0.8042549,30.79938,0.6954105,-36.91211,992.3716
1.077051163,0.05848298,-0.1631302,-0.1250093,-0.5323997,0.1592167,0.8002955,30.79938,0.6954105,-36.91211,992.3716
1.079510689,-0.06513834,-0.222312,-0.0640329,-0.5322942,0.1570857,0.8099369,30.79938,0.6954105,-36.91211,992.3716
1.081969261,-0.00331639,-0.103776,0.0578615,-0.529928,0.1587061,0.8026865,30.79938,0.6954105,-36.91211,992.3716
1.084428787,0.05848611,0.01472261,0.05784333,-0.5363223,0.1601653,0.7998725,30.79938,0.6954105,-36.91211,992.3716
1.086887360,0.05846771,-0.04451502,-0.06404914,-0.5348344,0.1639962,0.8043529,30.79938,0.6954105,-36.91211,992.3716
1.089346409,0.1202508,0.01473199,-0.003091891,-0.5347678,0.157118,0.807045,30.79938,0.6954105,-36.91211,992.3716
1.091804981,0.120213,0.07396036,-0.003090931,-0.5303755,0.1629615,0.8096241,30.79938,0.6954105,-36.91211,992.3716
1.094264507,-0.003427701,0.07393707,0.05784719,-0.5328625,0.1620552,0.80476,30.79938,0.6954105,-36.91211,992.3716
1.096724033,-0.00342664,-0.0445522,-0.06404527,-0.5308939,0.1581917,0.8036489,30.79938,0.6954105,-36.91211,992.3759
1.099182606,0.1201774,-0.1037712,-0.003088025,-0.5338621,0.1591944,0.8007922,30.79938,0.6954105,-36.91211,992.3759
1.104100227,0.05837804,-0.04451016,-0.003105203,-0.5367745,0.1644297,0.8063249,30.79938,0.6954105,-36.91211,992.3759
1.106559753,-0.003441792,0.01473685,-0.003104215,-0.5346798,0.1530917,0.8137128,30.79938,0.6954105,-36.91211,992.3759
1.109018326,-0.06524216,-0.1037339,0.05783391,-0.5313375,0.1542426,0.8059536,30.79938,0.6954105,-36.91211,992.3759
1.111477852,0.05838128,0.01476477,-0.1859328,-0.5299551,0.1602046,0.8007925,30.79938,0.6954105,-36.91211,992.3759
1.113936901,0.2437674,0.07399313,-0.1858744,-0.5343133,0.1591174,0.8046778,30.79938,0.6954105,-36.91211,992.3759
1.116395474,0.1200879,-0.1629622,0.05793256,-0.5362865,0.1596143,0.8032533,30.79938,0.6954105,-36.91211,992.3759
1.118855000,0.1200501,0.133254,0.2407258,-0.5294507,0.161626,0.8032617,30.79938,0.6954105,-36.91211,992.3759
1.121313572,0.05821095,0.01474612,0.1187759,-0.5299413,0.1543919,0.7986639,31.17133,0.3383525,-37.30563,992.3759
1.123776913,-0.003608817,0.01474149,0.05780141,-0.5391743,0.1513017,0.8030105,31.17133,0.3383525,-37.30563,992.3759
1.126231670,-0.003607696,-0.1629622,0.1187204,-0.5382715,0.1572412,0.7988237,31.17133,0.3383525,-37.30563,992.3759
1.128690720,-0.003606576,-0.1629111,0.1796202,-0.5319386,0.1616855,0.7989142,31.17133,0.3383525,-37.30563,992.3759
1.131150246,0.05819604,-0.1036269,0.3014381,-0.5333419,0.158657,0.8036839,31.17133,0.3383525,-37.30563,992.3759
1.133609295,0.2435822,-0.1628273,0.3013434,-0.5347455,0.1556285,0.8084537,31.17133,0.3383525,-37.30563,992.3759
1.136068344,0.1817042,-0.04431012,0.05750014,-0.5303791,0.1552535,0.8045216,31.17133,0.3383525,-37.30563,992.3759
1.140985966,0.3051735,-0.04430097,0.1184012,-0.5358576,0.1611808,0.7979591,31.17133,0.3383525,-37.30563,992.3759
1.143444538,0.1196732,-0.2219862,0.3011754,-0.5313961,0.1630342,0.8052649,31.17133,0.3383525,-37.30563,992.3759
1.145904064,0.1814371,-0.1626834,0.1792065,-0.5323897,0.1616085,0.8027997,31.17133,0.3383525,-37.30563,992.3759
1.148363590,0.304983,-0.2218654,0.3010245,-0.5294628,0.1621315,0.8023069,31.17133,0.3383525,-37.30563,992.3759
1.150822163,0.3048872,-0.1625626,0.1790556,-0.5304173,0.1620773,0.8047407,31.17133,0.3383525,-37.30563,992.3759
1.153281212,0.24299,-0.04404556,0.1180622,-0.5343911,0.1621598,0.798464,31.17133,0.3383525,-37.30563,992.3759
1.155739784,0.1811122,-0.04403177,0.3617737,-0.534317,0.1639462,0.8072603,31.17133,0.3383525,-37.30563,992.3759
1.158199310,-0.00434914,-0.162484,0.1788486,-0.534862,0.1630849,0.8009251,31.17133,0.3383525,-37.30563,992.3759
1.160657883,0.1192551,-0.1624329,0.05691818,-0.5333745,0.1611304,0.8018214,31.17133,0.3383525,-37.30563,992.3759
1.163117409,-0.00438528,-0.1623818,-0.064974,-0.533881,0.1592307,0.7988514,31.17133,0.3383525,-37.30563,992.3759
1.165576458,-0.004383924,0.07460137,-0.1868279,-0.5333494,0.1591535,0.8032144,31.17133,0.3383525,-37.30563,992.3759
1.168035030,0.1810219,-0.3400532,-0.003957744,-0.5318629,0.1615404,0.8066775,31.17133,0.3383525,-37.30563,992.3759
1.170494556,0.1191635,-0.1622473,0.239792,-0.5323462,0.1571854,0.8045997,31.17133,0.3383525,-37.30563,992.3759
1.172953129,-0.004476841,-0.1029634,0.0569053,-0.5338561,0.1606295,0.8022948,31.17604,0.3255965,-36.92254,992.3759
1.177871227,-0.004474011,-0.2805792,-0.1258845,-0.5323957,0.1601734,0.8012971,31.17604,0.3255965,-36.92254,992.3743
1.180330277,-0.06627409,-0.280491,-0.06490776,-0.5313823,0.1572215,0.8031363,31.17604,0.3255965,-36.92254,992.3743
1.182789803,0.05734965,-0.2804029,-0.2476988,-0.5308999,0.1567567,0.8021464,31.17604,0.3255965,-36.92254,992.3743
1.185248375,0.05733161,-0.2210817,-0.247621,-0.5357953,0.1600971,0.8037503,31.17604,0.3255965,-36.92254,992.3743
1.187707424,0.1191151,-0.2210122,-0.06473176,-0.5342568,0.1532231,0.806916,31.17604,0.3255965,-36.92254,992.3743
1.190166473,0.05727619,-0.1617097,0.05716286,-0.5352277,0.1560934,0.8094437,31.17604,0.3255965,-36.92254,992.3743
1.192625523,0.05725821,-0.220892,-0.1256665,-0.5353282,0.1640009,0.8038716,31.17604,0.3255965,-36.92254,992.3743
1.195084095,-0.004561267,-0.1615896,-0.0646899,-0.5333916,0.1650206,0.8024318,31.17604,0.3255965,-36.92254,992.3743
1.197543621,-0.004559852,-0.1615388,-0.1256067,-0.5313777,0.1605881,0.8056719,31.17604,0.3255965,-36.92254,992.3743
1.200002193,0.05724306,-0.2207211,0.05724416,-0.5328362,0.1615224,0.8071705,31.17604,0.3255965,-36.92254,992.3743
1.202461720,0.2426295,-0.1614187,-0.1255852,-0.532322,0.15955,0.8085595,31.17604,0.3255965,-36.92254,992.3743
1.204920769,-0.190057,-0.102135,-0.06460864,-0.5304654,0.1631338,0.8004052,31.17604,0.3255965,-36.92254,992.3743
1.207379341,-0.1899973,-0.04286988,-0.1255255,-0.5382921,0.1625846,0.7999662,31.17604,0.3255965,-36.92254,992.3743
1.209838867,0.05726829,-0.1020894,-0.003611769,-0.5372639,0.1586397,0.8027445,31.17604,0.3255965,-36.92254,992.3743
1.214756966,0.05721287,0.01645941,0.05730848,-0.528937,0.1572436,0.803117,31.17604,0.3255965,-36.92254,992.3743
1.217215538,-0.06640804,-0.04277879,0.1182276,-0.5333163,0.15909,0.8066108,31.17604,0.3255965,-36.92254,992.3743
1.219674587,-0.004585734,-0.04276534,0.05725334,-0.5348377,0.1620738,0.8028347,31.17604,0.3255965,-36.92254,992.3786
1.222134113,0.1808201,-0.161218,-0.003701787,-0.5348445,0.1616045,0.8018486,31.91546,0.700784,-37.35662,992.3786
1.224592686,-0.004641095,0.1942308,0.1791108,-0.5392531,0.1586855,0.7993636,31.91546,0.700784,-37.35662,992.3786
1.227051735,0.05716182,0.0757037,0.2399916,-0.5333161,0.1557143,0.8045605,31.91546,0.700784,-37.35662,992.3786
1.229510784,0.1189453,0.134913,-0.003832324,-0.5382468,0.1620156,0.8043174,31.91546,0.700784,-37.35662,992.3786
1.231969833,0.1807094,0.07563759,-0.003831132,-0.5338561,0.1606295,0.8022948,31.91546,0.700784,-37.35662,992.3786
1.234428406,0.2424542,-0.1020852,0.1789815,-0.5323645,0.1596316,0.8041927,31.91546,0.700784,-37.35662,992.3786
1.236887932,0.1805765,-0.04282015,0.05705098,-0.533374,0.1635402,0.8033553,31.91546,0.700784,-37.35662,992.3786
1.239346981,-0.004884646,0.01642629,-0.06484123,-0.5348387,0.157254,0.799767,31.91546,0.700784,-37.35662,992.3786
1.241806030,0.05691838,-0.1020449,-0.06482085,-0.5348064,0.1581563,0.8036799,31.91546,0.700784,-37.35662,992.3786
1.244265080,-0.004900977,-0.04277981,0.1180109,-0.5338956,0.1660092,0.8014966,31.91546,0.700784,-37.35662,992.3786
1.246723652,0.1187035,-0.1019994,0.1179738,-0.5358354,0.163067,0.8014181,31.91546,0.700784,-37.35662,992.3786
1.251641750,-0.005012819,-0.1019353,0.05698175,-0.5338086,0.1571631,0.8050964,31.91546,0.700784,-37.35662,992.3786
1.254100800,0.1185917,-0.1019033,-0.06491043,-0.5318654,0.1586521,0.8046427,31.91546,0.700784,-37.35662,992.3786
1.256560326,0.05675295,0.0165948,-0.00395289,-0.5323964,0.1611392,0.8018137,31.91546,0.700784,-37.35662,992.3786
1.259024143,0.05673514,-0.1018765,0.0569855,-0.52988,0.1576496,0.807022,31.91546,0.700784,-37.35662,992.3786
1.261478424,0.05671734,-0.1018445,-0.06490668,-0.5333382,0.1538282,0.8011014,31.91546,0.700784,-37.35662,992.3786
1.263936997,0.05669953,-0.04257955,-0.06488628,-0.5352954,0.1581519,0.8036838,31.91546,0.700784,-37.35662,992.3786
1.266396046,0.05668173,0.1351329,-0.003928765,-0.5348369,0.161108,0.8023182,31.91546,0.700784,-37.35662,992.3786
1.268855095,-0.005137572,0.0758574,-0.003927545,-0.5318572,0.1571899,0.8045958,31.91546,0.700784,-37.35662,992.3786
1.271316052,0.118467,-0.2203315,0.2398223,-0.5339045,0.1559004,0.794375,31.17054,0.3404785,-37.36948,992.3786
1.273773670,0.3038342,0.2536019,0.1178726,-0.5338412,0.1596365,0.8032339,31.17054,0.3404785,-37.36948,992.3786
1.276232243,0.05653286,0.1942893,0.1178356,-0.5333691,0.1601555,0.8017901,31.17054,0.3404785,-37.36948,992.3786
1.278691292,-0.005286379,0.1349952,0.1787357,-0.5304293,0.1592072,0.8017356,31.17054,0.3404785,-37.36948,992.3786
1.281149864,0.1801197,0.01648675,0.05680532,-0.531896,0.1616038,0.8032811,31.17054,0.3404785,-37.36948,992.3786
1.283609390,0.2418646,0.01648156,0.2395989,-0.5358223,0.15822,0.799806,31.17054,0.3404785,-37.36948,992.3786
1.286067963,0.1799872,0.07570935,0.1785865,-0.5323449,0.1586296,0.805617,31.17054,0.3404785,-37.36948,992.3786
1.288527489,0.2417321,0.01645251,-0.004281048,-0.533825,0.1600876,0.8051904,31.17054,0.3404785,-37.36948,992.3786
1.290986538,0.1798546,0.2533794,-0.004279711,-0.5319094,0.1606653,0.8013089,31.17054,0.3404785,-37.36948,992.3786
1.295904636,-0.0674448,0.01632537,0.1784578,-0.533782,0.1532547,0.8054565,31.17054,0.3404785,-37.36948,992.3786
1.298363209,0.05617936,-0.1021458,0.1784018,-0.5284474,0.1596579,0.804647,31.17054,0.3404785,-37.36948,992.377
1.300822735,0.05616173,-0.04288073,0.1783457,-0.5314603,0.1636396,0.7989729,31.17054,0.3404785,-37.36948,992.377
1.303281307,0.179747,0.1348318,0.05641542,-0.5319316,0.1587791,0.7978498,31.17054,0.3404785,-37.36948,992.377
1.305740357,0.241492,0.1940224,0.1173348,-0.5353606,0.1630986,0.7999586,31.17054,0.3404785,-37.36948,992.377
1.308199883,0.1178132,0.1347284,0.1782351,-0.5328942,0.1601872,0.8003306,31.17054,0.3404785,-37.36948,992.377
1.310658455,0.1177762,-0.04301295,0.117242,-0.5309052,0.1543558,0.8001273,31.17054,0.3404785,-37.36948,992.377
1.313117981,0.05593775,-0.04299939,0.1172051,-0.5309108,0.1587063,0.802209,31.17054,0.3404785,-37.36948,992.377
1.315576553,0.05592018,0.1939463,0.1171683,-0.5294797,0.1626462,0.8008669,31.17054,0.3404785,-37.36948,992.377
1.318035603,0.1177041,0.07541925,0.2390058,-0.5357488,0.1609722,0.8091188,31.17054,0.3404785,-37.36948,992.377
1.320494175,0.3030716,-0.04307048,0.2998678,-0.5328484,0.162028,0.8062156,31.17838,0.0200593,-36.9319,992.377
1.322953701,0.2411748,0.07540908,0.1778994,-0.5358673,0.1645746,0.7990391,31.17838,0.0200593,-36.9319,992.377
1.325412273,0.2410991,-0.04308065,0.2387806,-0.5318977,0.1577498,0.8007298,31.17838,0.0200593,-36.9319,992.377
1.330330849,0.117403,0.2530558,0.05587662,-0.5339003,0.1660183,0.8010113,31.17838,0.0200593,-36.9319,992.377
1.332789421,0.3027705,0.1345102,0.2386705,-0.539292,0.1539383,0.7924142,31.17838,0.0200593,-36.9319,992.377
1.335248947,0.1172709,-0.2209303,0.0557841,-0.5322894,0.1445398,0.8027372,31.17838,0.0200593,-36.9319,992.377
1.337707520,0.1172341,-0.04316179,0.238578,-0.5307276,0.1443717,0.8124296,31.17838,0.0200593,-36.9319,992.377
1.340167046,0.4880061,0.01608477,0.2385031,-0.530907,0.1630387,0.8052611,31.17838,0.0200593,-36.9319,992.3779
1.342625618,0.2406469,-0.04315332,0.1165539,-0.5325087,0.1753378,0.7988711,31.17838,0.0200593,-36.9319,992.3779
1.345084667,0.05516689,0.01609324,0.1165172,-0.5353777,0.1669889,0.8005691,31.17838,0.0200593,-36.9319,992.3779
1.347544193,-0.006651941,0.01608816,0.05554346,-0.5329076,0.1592486,0.7983585,31.17838,0.0200593,-36.9319,992.3779
1.350002766,0.1169531,-0.1023829,-0.1272854,-0.5357586,0.1552048,0.8045642,31.17838,0.0200593,-36.9319,992.3779
1.352462292,0.1169164,-0.04311772,0.1165031,-0.534228,0.1555785,0.8113611,31.17838,0.0200593,-36.9319,992.3779
1.354920864,0.1168796,-0.1615703,0.1164665,-0.5308867,0.1610709,0.8061689,31.17838,0.0200593,-36.9319,992.3779
1.357379913,-0.0685615,-0.1615195,0.1773671,-0.531423,0.1611571,0.8013207,31.17838,0.0200593,-36.9319,992.3779
1.359838486,0.1168644,-0.04300267,0.1773114,-0.533382,0.1616268,0.8013518,31.17838,0.0200593,-36.9319,992.3779
1.362298012,0.1786292,0.1347099,0.05538136,-0.5348974,0.1660457,0.7990783,31.17838,0.0200593,-36.9319,992.3779
1.364757538,-0.1304343,0.1346676,0.05536395,-0.5323897,0.1616085,0.8027997,31.17838,0.0200593,-36.9319,992.3779
1.367216110,-0.1303933,0.01615924,0.05534657,-0.5339203,0.1612348,0.7960027,31.17838,0.0200593,-36.9319,992.3779
1.369675160,0.0550521,0.01615416,-0.00560795,-0.530976,0.1636531,0.7984838,31.54519,0.335183,-37.30482,992.3779
1.372133732,0.1786378,-0.16155,-0.06654334,-0.5284562,0.1587103,0.8031601,31.54519,0.335183,-37.30482,992.3779
1.377051830,-0.006859411,-0.1022342,0.1772279,-0.5372738,0.156248,0.8002403,31.54519,0.335183,-37.30482,992.3779
1.379511356,-0.1304602,0.075497,0.1771722,-0.5338783,0.1587432,0.7988358,31.54519,0.335183,-37.30482,992.3745
1.381970406,-0.2540222,0.1347063,-0.1885063,-0.5304188,0.1640089,0.8057737,31.54519,0.335183,-37.30482,992.3745
1.384428978,-0.1921409,0.01619789,-0.06657282,-0.5328591,0.160602,0.8042279,31.54519,0.335183,-37.30482,992.3745
1.386888504,-0.06847761,-0.04304019,0.05532239,-0.5328628,0.1562697,0.8011758,31.54519,0.335183,-37.30482,992.3745
1.389347077,-0.2538605,-0.1614927,-0.06656927,-0.5348337,0.1630305,0.8038364,31.54519,0.335183,-37.30482,992.3745
1.391806603,-0.1301778,-0.161442,-0.005611205,-0.5368215,0.1611447,0.7994224,31.54519,0.335183,-37.30482,992.3745
1.394265175,-0.06833546,0.07554085,-0.1274837,-0.5343727,0.1597137,0.7988709,31.54519,0.335183,-37.30482,992.3745
1.396724224,-0.1301154,0.1347501,-0.005569409,-0.5352727,0.1624479,0.8086767,31.54519,0.335183,-37.30482,992.3745
1.399183750,0.05532984,-0.04299125,-0.0665048,-0.5309476,0.1635986,0.8013951,31.54519,0.335183,-37.30482,992.3745
1.401642323,-0.130092,-0.04297769,-0.005546766,-0.5338225,0.1629758,0.8072251,31.54519,0.335183,-37.30482,992.3745
1.404107094,-0.1300511,0.07550186,-0.1274193,-0.5372571,0.159109,0.8037305,31.54519,0.335183,-37.30482,992.3745
1.409019470,-0.1299694,-0.1021889,-0.005464973,-0.5353815,0.1626565,0.7975169,31.54519,0.335183,-37.30482,992.3745
1.411478043,-0.1299285,0.01630932,-0.1273375,-0.5329382,0.1622003,0.7969968,31.54519,0.335183,-37.30482,992.3745
1.413937569,-0.1298877,-0.1613949,-0.1272975,-0.5294649,0.1616532,0.8018061,31.54519,0.335183,-37.30482,992.3745
1.416396618,-0.1916484,-0.1021111,0.05555387,-0.5352914,0.1591086,0.8046855,31.54519,0.335183,-37.30482,992.3745
1.418855667,-0.1915882,-0.161312,-0.127275,-0.5339178,0.164123,0.7980375,31.5499,0.322427,-36.92173,992.3768
1.421314716,-0.06792507,-0.2204944,-0.2491093,-0.5338984,0.1664966,0.8015122,31.5499,0.322427,-36.92173,992.3768
1.423773289,-0.3151096,-0.2796581,-0.1271568,-0.529441,0.1582322,0.8021817,31.5499,0.322427,-36.92173,992.3768
1.426232815,-0.3150106,-0.1018712,-0.1271168,-0.5269964,0.1592201,0.8026788,31.5499,0.322427,-36.92173,992.3768
1.428691387,-0.06770574,0.07585989,-0.2489512,-0.5288952,0.1581278,0.8080003,31.5499,0.322427,-36.92173,992.3768
1.431150913,-0.1912874,0.135069,-0.248873,-0.5329139,0.1611892,0.7989063,31.5499,0.322427,-36.92173,992.3768
1.433609963,-0.1912273,-0.2203715,-0.1269205,-0.5328397,0.1538144,0.802068,31.5499,0.322427,-36.92173,992.3768
1.436068535,-0.3765717,-0.1018363,-0.1878178,-0.5328271,0.1557188,0.8045566,31.5499,0.322427,-36.92173,992.3768
1.438528061,-0.3764533,-0.0425713,-0.1877587,-0.5333031,0.154243,0.8049987,31.5499,0.322427,-36.92173,992.3768
1.443445683,-0.1290886,-0.2202064,-0.2485205,-0.5329111,0.1607018,0.7988907,31.5499,0.322427,-36.92173,992.3768
1.445904732,-0.252651,-0.1609043,-0.1265682,-0.5323917,0.1611301,0.8022988,31.5499,0.322427,-36.92173,992.3768
1.448363781,-0.06716723,-0.1608538,-0.1265284,-0.5337883,0.1551953,0.8060043,31.5499,0.322427,-36.92173,992.3768
1.450823307,-0.190749,0.01689586,-0.1264886,-0.532426,0.1597495,0.797885,31.5499,0.322427,-36.92173,992.3768
1.453281880,-0.3142921,-0.2200415,-0.06551176,-0.5314426,0.1621592,0.7998964,31.5499,0.322427,-36.92173,992.3768
1.455740929,-0.2523919,-0.1607394,-0.004554038,-0.5323586,0.1610667,0.8056952,31.5499,0.322427,-36.92173,992.3768
1.458199978,-0.2523126,-0.1014559,-0.1264269,-0.5299561,0.164546,0.8033594,31.5499,0.322427,-36.92173,992.3768
1.460659027,-0.3140348,-0.101424,-0.1873243,-0.5313675,0.1596042,0.8061258,31.5499,0.322427,-36.92173,992.3751
1.463117600,-0.2521347,-0.2198582,-0.1872655,-0.5339041,0.1616859,0.7979593,31.5499,0.322427,-36.92173,992.3751
1.465577126,-0.190254,-0.1605562,-0.2481438,-0.5373123,0.1664475,0.8025097,31.5499,0.322427,-36.92173,992.3751
1.468035698,-0.1283928,-0.1012727,-0.1871287,-0.5362892,0.1601018,0.803269,31.5416,0.7039536,-37.35743,992.3751
1.470495224,-0.3755583,-0.338173,-0.1870699,-0.5318316,0.1576229,0.8075227,31.5416,0.7039536,-37.35743,992.3751
1.472954273,-0.3136388,-0.1603677,-0.1870111,-0.5328949,0.1611529,0.8008471,31.5416,0.7039536,-37.35743,992.3751
1.475412846,-0.2517388,-0.2787834,-0.00414092,-0.5339273,0.1641411,0.7970671,31.5416,0.7039536,-37.35743,992.3751
1.477872372,-0.3134612,-0.3971619,-0.1869511,-0.5304273,0.1596856,0.8022364,31.5416,0.7039536,-37.35743,992.3751
1.480330944,-0.1897598,-0.160105,-0.06501804,-0.5327954,0.1575868,0.808986,31.5416,0.7039536,-37.35743,992.3751
1.482789993,-0.1897002,-0.1008218,-0.1259347,-0.5328611,0.1601237,0.803727,31.5416,0.7039536,-37.35743,992.3751
1.487708092,-0.06597807,-0.1007212,0.05689839,-0.5343879,0.1640823,0.7999822,31.5416,0.7039536,-37.35743,992.3751
1.490167618,-0.004155878,-0.2191556,-0.1259309,-0.5314487,0.1607241,0.7983938,31.5416,0.7039536,-37.35743,992.3751
1.492626190,-0.189559,-0.04138771,-0.1868285,-0.5352913,0.1557329,0.8026351,31.5416,0.7039536,-37.35743,992.3751
1.495085240,-0.1894995,0.0770914,-0.1258327,-0.5333604,0.151942,0.7976424,31.5416,0.7039536,-37.35743,992.3751
1.497544289,-0.1894399,0.07706721,-0.1867303,-0.5362821,0.1538197,0.8001543,31.5416,0.7039536,-37.35743,992.3751
1.500003338,-0.1275789,0.195509,-0.0647973,-0.5348402,0.1591856,0.8008,31.5416,0.7039536,-37.35743,992.3734
1.502461910,-0.1893403,0.01774855,-0.06477696,-0.5328673,0.1620643,0.8042748,31.5416,0.7039536,-37.35743,992.3734
1.504921436,0.05792501,-0.2784222,-0.1256938,-0.5377504,0.1615235,0.8047831,31.5416,0.7039536,-37.35743,992.3734
1.507380486,0.0579068,0.07706348,-0.1865914,-0.5347795,0.1600334,0.8076242,31.5416,0.7039536,-37.35743,992.3734
1.509839058,0.05788858,0.1362723,-0.003721378,-0.5337564,0.1536877,0.8083833,31.5416,0.7039536,-37.35743,992.3734
1.512298584,0.1814733,0.1362295,0.05721692,-0.5348353,0.1558008,0.7992348,31.5416,0.7039536,-37.35743,992.3734
1.514757156,0.1814163,0.07695363,0.05719896,-0.5358075,0.1606027,0.8027955,31.5416,0.7039536,-37.35743,992.3734
1.517216682,0.05775639,0.01769645,0.2399924,-0.537721,0.1571277,0.8051274,31.5416,0.7039536,-37.35743,992.3734
1.522134304,0.1195022,0.3730091,0.1180439,-0.5343438,0.1620691,0.8033161,31.17288,0.03494127,-37.37884,992.3734
1.524593830,0.05766318,0.3136589,0.178944,-0.5319121,0.1611527,0.8013245,31.17288,0.03494127,-37.37884,992.3734
1.527052402,0.181248,0.3135604,-0.003923679,-0.528501,0.1616892,0.8003427,31.17288,0.03494127,-37.37884,992.3734
1.529511928,0.3665955,0.07652972,0.1179518,-0.5343421,0.1659231,0.8058673,31.17288,0.03494127,-37.37884,992.3734
1.531970501,0.1810759,0.3726709,-0.003959489,-0.5319345,0.1626422,0.7999159,31.17288,0.03494127,-37.37884,992.3734
1.534429550,-0.004385398,0.1948547,-0.003958238,-0.5328352,0.157181,0.8046036,31.17288,0.03494127,-37.37884,992.3734
1.536888122,-0.004384042,0.1355604,-0.06489412,-0.5357317,0.1570819,0.8085084,31.17288,0.03494127,-37.37884,992.3734
1.539347649,0.05741881,0.1355178,-0.06487375,-0.5328769,0.1654581,0.8053548,31.17288,0.03494127,-37.37884,992.3734
1.541807175,-0.06620216,0.1947083,-0.003916238,-0.531934,0.165052,0.8014498,31.17288,0.03494127,-37.37884,992.3717
1.544265747,0.1192231,0.3131132,0.1179593,-0.5313927,0.1615811,0.8047328,31.17288,0.03494127,-37.37884,992.3717
1.546724796,0.05738414,0.1353157,-0.06488919,-0.5303867,0.1591256,0.8061024,31.17288,0.03494127,-37.37884,992.3717
1.549183369,-0.004435335,0.1352732,-0.1258059,-0.5348573,0.1630758,0.8014104,31.17288,0.03494127,-37.37884,992.3717
1.551642895,-0.06623542,0.1944638,-0.1257664,-0.5352951,0.1639374,0.807268,31.17288,0.03494127,-37.37884,992.3717
1.554101467,-0.251619,0.1351696,-0.2476012,-0.5328922,0.1606655,0.8008314,31.17288,0.03494127,-37.37884,992.3717
1.556560993,-0.004334106,0.07589413,-0.1256491,-0.5333834,0.1635584,0.8023849,31.17288,0.03494127,-37.37884,992.3717
1.561478615,-0.1897552,0.1942754,-0.06470961,-0.5318557,0.1552583,0.8035628,31.17288,0.03494127,-37.37884,992.3717
1.563938141,-0.06609268,0.2534473,0.05718501,-0.5323659,0.1581875,0.8031754,31.17288,0.03494127,-37.37884,992.3717
1.566396713,0.057531,0.3718338,-0.003770093,-0.5329136,0.1578135,0.7968559,31.17288,0.03494127,-37.37884,992.3717
1.568856239,0.0575129,0.1940178,-0.06470603,-0.5358297,0.1587165,0.7993364,31.16582,0.3532345,-37.75257,992.3717
1.571314812,0.05749486,0.01625779,-0.06468572,-0.5358548,0.1606934,0.7979434,31.16582,0.3532345,-37.75257,992.3717
1.573773861,-0.06612617,0.0162527,-0.003728267,-0.5362788,0.1557422,0.8016725,31.16582,0.3532345,-37.75257,992.3717
1.576233387,0.119299,0.07548062,0.1181472,-0.5323989,0.158251,0.7997789,31.16582,0.3532345,-37.75257,992.3717
1.578691959,0.05746008,0.01622389,-0.003764192,-0.5298569,0.1551944,0.8079141,31.16582,0.3532345,-37.75257,992.3717
1.581151485,-0.06616089,-0.1022473,-0.1256373,-0.5293782,0.1595584,0.8095068,31.16582,0.3532345,-37.75257,992.3743
1.583610058,0.05746285,0.1347169,-0.186535,-0.5343107,0.1620056,0.8067124,31.16582,0.3532345,-37.75257,992.3743
1.586069107,0.05744481,0.2531406,-0.1864764,-0.5368209,0.1635546,0.8009563,31.16582,0.3532345,-37.75257,992.3743
1.588527679,0.1192282,0.07536195,-0.003606363,-0.5348499,0.1625793,0.80188,31.16582,0.3532345,-37.75257,992.3743
1.590987205,0.1191908,0.01610522,-0.1254795,-0.5353603,0.159723,0.7979082,31.16582,0.3532345,-37.75257,992.3743
1.593446731,-0.004449602,0.07533325,-0.06450295,-0.5333527,0.157231,0.8016962,31.16582,0.3532345,-37.75257,992.3743
1.595905304,0.1809562,-0.04315648,0.05739158,-0.5348586,0.1616317,0.800393,31.16582,0.3532345,-37.75257,992.3743
1.598364353,0.1190979,0.07532319,-0.003563577,-0.5333534,0.1581968,0.8022127,31.16582,0.3532345,-37.75257,992.3743
1.600822925,0.1808619,0.01606646,0.1183118,-0.5328238,0.1576412,0.8060748,31.16582,0.3532345,-37.75257,992.3743
1.605741024,-0.004636673,0.01603775,-0.003579331,-0.5309212,0.1630659,0.8038055,31.16582,0.3532345,-37.75257,992.3743
1.608200550,-0.004635199,0.01603267,-0.06451534,-0.5318821,0.1557911,0.8011524,31.16582,0.3532345,-37.75257,992.3743
1.610659599,0.05716771,0.01602758,-0.06449508,-0.5328814,0.1620915,0.8028192,31.16582,0.3532345,-37.75257,992.3743
1.613118172,0.05714973,0.1937216,-0.06447481,-0.5362757,0.1610403,0.805241,31.16582,0.3532345,-37.75257,992.3743
1.615577698,-0.004669689,0.01596169,-0.06445456,-0.5338429,0.1649436,0.8063173,31.16582,0.3532345,-37.75257,992.3743
1.618036270,-0.004668215,0.1344227,-0.0644343,-0.5309362,0.1640588,0.8028663,31.53688,0.7167096,-37.74052,992.3743
1.620495796,-0.1282697,-0.1617846,-0.1253512,-0.5305094,0.1651469,0.7970713,31.53688,0.7167096,-37.74052,992.3743
1.622954369,-0.06642791,-0.1617338,-0.06437469,-0.5338852,0.1616496,0.7999001,31.53688,0.7167096,-37.74052,992.3743
1.625413418,0.2426003,-0.04321694,-0.06435446,-0.5314081,0.1601642,0.8022598,31.53688,0.7167096,-37.74052,992.3743
1.627872944,-0.004681775,-0.1616694,-0.1252714,-0.5334111,0.162647,0.7989571,31.53688,0.7167096,-37.74052,992.3743
1.630331516,-0.2518862,-0.1616186,-0.125232,-0.5363297,0.1606617,0.7994029,31.53688,0.7167096,-37.74052,992.3743
1.632790565,-0.251807,0.07536421,-0.1251927,-0.5372948,0.1683427,0.8054835,31.53688,0.7167096,-37.74052,992.3743
1.635249615,-0.004522061,0.07534048,-0.3079648,-0.5328544,0.1605929,0.8047131,31.53688,0.7167096,-37.74052,992.3743
1.637708664,-0.1899251,0.01608375,-0.1250566,-0.5309141,0.1567839,0.8006907,31.53688,0.7167096,-37.74052,992.3743
1.640167236,-0.2516669,-0.04315433,-0.1859544,-0.5304171,0.1587017,0.8026903,31.53688,0.7167096,-37.74052,992.3743
1.642626762,-0.2515878,-0.04314077,-0.1249589,-0.535334,0.1591902,0.8003187,31.53688,0.7167096,-37.74052,992.3743
1.645085335,-0.1279058,-0.04312721,-0.1858568,-0.5373017,0.1587123,0.7988629,31.53688,0.7167096,-37.74052,992.3743
1.650003910,-0.3132299,-0.1023331,-0.18574,-0.5347703,0.1542297,0.8050103,31.53688,0.7167096,-37.74052,992.3743
1.652462482,-0.127727,-0.161534,-0.06380737,-0.5411061,0.1502729,0.8049355,31.53688,0.7167096,-37.74052,992.3743
1.654922008,-0.1276869,-0.1614832,-0.1247245,-0.5333183,0.1586116,0.80611,31.53688,0.7167096,-37.74052,992.3743
1.657380581,-0.3130512,0.1347326,-0.1246853,-0.5339047,0.1718129,0.8041103,31.53688,0.7167096,-37.74052,992.3743
1.659840107,-0.2511513,0.1346902,-0.002771843,-0.5408022,0.1732948,0.7998447,31.53688,0.7167096,-37.74052,992.3743
1.662298679,-0.1892709,0.01618184,-0.0637081,-0.5402662,0.167423,0.8011086,31.53688,0.7167096,-37.74052,992.3709
1.664757728,-0.1892115,-0.1022893,-0.2464995,-0.5357742,0.1571635,0.8041415,31.53688,0.7167096,-37.74052,992.3709
1.667217255,-0.1273505,0.01620885,-0.3073592,-0.5342723,0.1518061,0.804443,31.17054,0.3404785,-37.36948,992.3709
1.669675827,-0.00370757,-0.04302923,-0.3072627,-0.5337442,0.1531821,0.8093382,31.17054,0.3404785,-37.36948,992.3709
1.672134876,-0.1273093,-0.04301567,-0.246229,-0.531861,0.1528575,0.8015438,31.17054,0.3404785,-37.36948,992.3709
1.674593925,-0.1272693,-0.04300211,-0.06334022,-0.5279639,0.1606372,0.8046744,31.17054,0.3404785,-37.36948,992.3709
1.677052975,-0.06542788,0.01624445,-0.1242575,-0.5372528,0.1658512,0.8083165,31.17054,0.3404785,-37.36948,992.3709
1.679511547,-0.3744147,0.07547236,-0.1851556,-0.534962,0.1734023,0.796887,31.17054,0.3404785,-37.36948,992.3709
1.681971073,-0.2506941,-0.1022505,-0.428846,-0.5373586,0.1621968,0.7950908,31.17054,0.3404785,-37.36948,992.3709
1.684430122,-0.1270124,-0.2799175,-0.1849627,-0.5348095,0.1528582,0.8001114,31.17054,0.3404785,-37.36948,992.3709
1.686889172,-0.1269725,-0.1021305,-0.2458417,-0.5297806,0.1449224,0.8095263,31.17054,0.3404785,-37.36948,992.3709
1.689348221,-0.003329655,0.01636764,-0.1848273,-0.5302687,0.1497377,0.8125979,31.17054,0.3404785,-37.36948,992.3709
1.694266319,-0.1886737,0.01641318,-0.2456483,-0.5378422,0.1737543,0.8027483,31.17054,0.3404785,-37.36948,992.3709
1.696724892,-0.3122174,-0.04282501,-0.184634,-0.5370147,0.1822488,0.7923321,31.17054,0.3404785,-37.36948,992.3709
1.699183941,-0.3739208,-0.1612777,-0.3064503,-0.5324528,0.1670336,0.7995754,31.17054,0.3404785,-37.36948,992.3709
1.701645374,-0.3120018,-0.04276093,-0.1844798,-0.5298605,0.1474864,0.8028117,31.17054,0.3404785,-37.36948,992.3692
1.704102039,-0.4355068,0.07571851,-0.3672332,-0.5381458,0.1439811,0.8037384,31.17054,0.3404785,-37.36948,992.3692
1.706561565,-0.1881641,0.1349278,-0.3061807,-0.5361766,0.1516887,0.8097957,31.17054,0.3404785,-37.36948,992.3692
1.709020138,-0.06450202,-0.1612798,-0.1232731,-0.5371898,0.151265,0.8059062,31.17054,0.3404785,-37.36948,992.3692
1.711479187,0.05912119,-0.1612292,-0.1841715,-0.5338668,0.1592035,0.8003071,31.17054,0.3404785,-37.36948,992.3692
1.713938236,-0.1881032,-0.04271245,-0.1231765,-0.5329019,0.1640593,0.8019114,31.17054,0.3404785,-37.36948,992.3692
1.716397285,-0.1880442,-0.1019321,-0.184075,-0.5334091,0.1631254,0.7994579,31.5444,0.3373089,-37.36867,992.3692
1.718856811,-0.2497866,-0.2795992,0.05973141,-0.5387143,0.1614875,0.8062465,31.5444,0.3373089,-37.36867,992.3692
1.721315384,-0.1261052,-0.1610453,-0.06216164,-0.5337927,0.1518287,0.8034687,31.5444,0.3373089,-37.36867,992.3692
1.723774433,-0.06426407,-0.04252869,-0.1840164,-0.5338565,0.1548439,0.7987106,31.5444,0.3373089,-37.36867,992.3692
1.726233482,-0.002442411,0.07595075,-0.06208429,-0.5303283,0.1537096,0.8088415,31.5444,0.3373089,-37.36867,992.3692
1.728692532,-0.2496475,0.07592691,-0.06206479,-0.5323327,0.158124,0.8065718,31.5444,0.3373089,-37.36867,992.3692
1.731151104,0.05943826,0.01667006,0.05982899,-0.5328752,0.1601509,0.8022714,31.5444,0.3373089,-37.36867,992.3692
1.733610630,0.1830225,-0.04256824,0.05981018,-0.5343777,0.1630984,0.8004361,31.5444,0.3373089,-37.36867,992.3692
1.738528252,-0.1878431,0.01663571,-0.001145413,-0.5328556,0.1591488,0.8036957,31.5444,0.3373089,-37.36867,992.3692
1.740987778,-0.002379622,-0.0426026,0.1207292,-0.5323606,0.1605883,0.8051944,31.5444,0.3373089,-37.36867,992.3692
1.743446350,0.1212241,-0.04258927,0.05975417,-0.5313925,0.1582054,0.8026824,31.5444,0.3373089,-37.36867,992.3702
1.745905876,0.05938449,0.01665718,-0.123076,-0.5353238,0.1582063,0.8007725,31.5444,0.3373089,-37.36867,992.3702
1.748365879,-0.2496415,0.135118,-0.06210022,-0.5323049,0.1556597,0.8079491,31.5444,0.3373089,-37.36867,992.3702
1.750823498,-0.00235716,-0.1610896,0.05979358,-0.5318268,0.1576138,0.8080078,31.5444,0.3373089,-37.36867,992.3702
1.753283024,0.1212465,0.07589311,0.3035234,-0.5348985,0.1612259,0.7960105,31.5444,0.3373089,-37.36867,992.3702
1.755741596,0.05940695,0.1351023,0.05967944,-0.5353853,0.1583242,0.7944648,31.5444,0.3373089,-37.36867,992.3702
1.758201122,0.1211898,0.1350598,0.0596607,-0.5353136,0.1572224,0.8012264,31.5444,0.3373089,-37.36867,992.3702
1.760659695,-0.06425275,-0.04268171,0.1205791,-0.5372369,0.1605168,0.8066887,31.5444,0.3373089,-37.36867,992.3702
1.763118744,0.0593704,-0.04266826,-0.001333093,-0.5338238,0.1615317,0.8062078,31.5444,0.3373089,-37.36867,992.3702
1.765577316,0.2447561,0.1350442,-0.001332686,-0.5368521,0.1640964,0.7980607,30.42361,0.3446915,-37.30724,992.3702
1.768036842,0.1828778,0.01653569,-0.1841437,-0.5387581,0.160125,0.8008622,30.42361,0.3446915,-37.30724,992.3702
1.770496368,0.05921735,-0.04270251,-0.001274409,-0.5338424,0.1581924,0.8022166,30.42361,0.3446915,-37.30724,992.3702
1.772954941,0.05919872,-0.04268906,0.1815374,-0.5343071,0.1571768,0.8041299,30.42361,0.3446915,-37.30724,992.3702
1.775413990,0.1827831,0.1350235,0.2424175,-0.5353436,0.162584,0.8013986,30.42361,0.3446915,-37.30724,992.3702
1.777872562,-0.00267877,0.2534471,0.05952993,-0.5318885,0.1611074,0.8037506,30.42361,0.3446915,-37.30724,992.3702
1.780337334,0.120925,-0.1612638,-0.001425931,-0.5314078,0.1659497,0.805844,30.42361,0.3446915,-37.30724,992.3702
1.785250187,-0.002734484,0.01653659,-0.06238132,-0.5333405,0.1567255,0.8026509,30.42361,0.3446915,-37.30724,992.3684
1.787709236,0.05906783,0.01653139,0.05951257,-0.5333894,0.1621233,0.8008822,30.42361,0.3446915,-37.30724,992.3684
1.790167808,0.05904926,0.07575919,0.120431,-0.5329049,0.1587612,0.7983428,30.42361,0.3446915,-37.30724,992.3684
1.792627335,0.1208322,-0.04273064,0.1203932,-0.531893,0.1577408,0.801215,30.42361,0.3446915,-37.30724,992.3684
1.795085907,0.05899278,0.1349819,-0.06245608,-0.5285057,0.1616983,0.7998575,30.42361,0.3446915,-37.30724,992.3684
1.797545433,0.05897427,0.1941725,-0.001499323,-0.5343138,0.1567075,0.8031439,30.42361,0.3446915,-37.30724,992.3684
1.800004005,-0.06464717,0.01641239,-0.001498858,-0.5342889,0.1581063,0.8065873,30.42361,0.3446915,-37.30724,992.3684
1.802463055,-0.002825396,-0.0428258,0.05943874,-0.5357931,0.1571998,0.8022007,30.42361,0.3446915,-37.30724,992.3684
1.804922581,0.05897698,-0.04281235,0.1203572,-0.5275028,0.1664816,0.8053435,30.42361,0.3446915,-37.30724,992.3684
1.807381153,0.05895847,0.01643409,0.05938227,-0.5343314,0.1581879,0.8022205,30.42361,0.3446915,-37.30724,992.3684
1.809840679,-0.002861537,0.075662,-0.06251067,-0.5318679,0.1557639,0.802608,30.42361,0.3446915,-37.30724,992.3684
1.812299252,0.1207423,-0.04282784,-0.00155388,-0.5338879,0.162137,0.7999157,30.42361,0.3446915,-37.30724,992.3684
1.814758301,-0.002898621,0.07565172,-0.001553386,-0.5387315,0.1562166,0.8012223,31.54954,-0.3348729,-37.38927,992.3684
1.817216873,-0.06469917,-0.2205372,0.2421957,-0.5304457,0.1621317,0.8018295,31.54954,-0.3348729,-37.38927,992.3684
1.819676399,-0.002877396,-0.04276884,-0.001628987,-0.5299234,0.1620727,0.805222,31.54954,-0.3348729,-37.38927,992.3684
1.822135448,0.05892498,-0.0427554,0.05930867,-0.5377628,0.1562436,0.8002442,31.54954,-0.3348729,-37.38927,992.3711
1.824594498,0.120708,-0.04274195,0.1811643,-0.5372788,0.1596327,0.8018054,31.54954,-0.3348729,-37.38927,992.3711
1.827053547,0.05886856,-0.1019615,-0.06264117,-0.5309216,0.1572803,0.8002213,31.54954,-0.3348729,-37.38927,992.3711
1.831971645,0.1205942,-0.04266442,-0.00170299,-0.5362506,0.1590634,0.8066341,31.54954,-0.3348729,-37.38927,992.3711
1.834430218,-0.003046662,-0.04265097,-0.1845139,-0.5299375,0.1587242,0.8017161,31.54954,-0.3348729,-37.38927,992.3711
1.836889744,-0.003045718,-0.2203366,-0.1235188,-0.5304283,0.164027,0.8048033,31.54954,-0.3348729,-37.38927,992.3711
1.839348793,0.05875672,0.07589775,-0.1844171,-0.5304422,0.1606786,0.8012973,31.54954,-0.3348729,-37.38927,992.3711
1.841807365,-0.1884676,0.1351069,-0.06248488,-0.5318823,0.1591668,0.8032028,31.54954,-0.3348729,-37.38927,992.3711
1.844266891,-0.1266069,0.01659841,-0.001528099,-0.5318661,0.1596179,0.8051592,31.54954,-0.3348729,-37.38927,992.3711
1.846725464,0.05883725,0.01659321,-0.001527605,-0.5313424,0.1576273,0.8075188,31.54954,-0.3348729,-37.38927,992.3711
1.849184990,-0.002982693,-0.04264498,0.05941003,-0.536275,0.1600745,0.8047246,31.54954,-0.3348729,-37.38927,992.3711
1.851643562,-0.06478325,0.01660146,-0.001545771,-0.5334049,0.1607064,0.7984093,31.54954,-0.3348729,-37.38927,992.3711
1.854102612,0.05884003,-0.1611028,0.120329,-0.52799,0.1577943,0.8002137,31.54954,-0.3348729,-37.38927,992.3711
1.856562138,-0.06478142,-0.1018192,0.05935404,-0.5299476,0.1597082,0.8012621,31.54954,-0.3348729,-37.38927,992.3711
1.859020710,-0.1265625,-0.1017872,-0.001601752,-0.5367436,0.1581023,0.8056362,31.54954,-0.3348729,-37.38927,992.3711
1.861479759,-0.06472128,-0.1609882,-0.1234755,-0.5348104,0.1571996,0.8026782,31.54954,-0.3348729,-37.38927,992.3711
1.866397858,-0.06470005,0.01675607,0.05939433,-0.5338161,0.1576596,0.8046269,31.17324,0.6922411,-36.9113,992.3694
1.868856430,0.05892321,-0.04248224,-0.001561467,-0.5304266,0.1587198,0.8017199,31.17324,0.6922411,-36.9113,992.3694
1.871315956,0.0589047,-0.04246891,-0.001560973,-0.5377908,0.1620835,0.8009171,31.17324,0.6922411,-36.9113,992.3694
1.873775005,0.05888619,0.01677743,-0.06249762,-0.5362877,0.1581702,0.8022359,31.17324,0.6922411,-36.9113,992.3694
1.876234055,-0.1265367,0.07600522,-0.06247799,-0.5308989,0.1615764,0.8052141,31.17324,0.6922411,-36.9113,992.3694
1.878693104,-0.002894081,-0.2201838,0.1203531,-0.5328705,0.1601418,0.8027566,31.17324,0.6922411,-36.9113,992.3694
1.881151676,-0.002893197,-0.04241556,-0.001559025,-0.5338974,0.1621552,0.7989453,31.17324,0.6922411,-36.9113,992.3694
1.883611202,0.1207107,0.01683077,-0.06249567,-0.5333459,0.1577003,0.8026822,31.17324,0.6922411,-36.9113,992.3694
1.886069775,0.1206728,-0.1016405,-0.06247605,-0.5348118,0.1591311,0.8037112,31.17324,0.6922411,-36.9113,992.3694
1.888528824,-0.002968072,-0.2200747,0.05941787,-0.5280064,0.1607188,0.8003076,31.17324,0.6922411,-36.9113,992.3694
1.890988350,-0.06476862,0.0169266,-0.001537923,-0.5344086,0.1602646,0.7954902,31.17324,0.6922411,-36.9113,992.3694
1.893446922,0.1824576,0.01692129,-0.1843489,-0.5319226,0.1563511,0.7972864,31.17324,0.6922411,-36.9113,992.3694
1.895906448,0.1824003,-0.1015501,0.1203947,-0.5338325,0.1605841,0.8047208,31.17324,0.6922411,-36.9113,992.3694
1.900824070,0.05874098,0.07623136,0.1203,-0.5343802,0.1602102,0.7984014,31.17324,0.6922411,-36.9113,992.3694
1.903283119,-0.00307897,-0.04225859,-0.001612129,-0.5294231,0.1533761,0.8010548,31.17324,0.6922411,-36.9113,992.3721
1.905742168,-0.126681,0.07622074,-0.1234859,-0.5357648,0.1571454,0.8051119,31.17324,0.6922411,-36.9113,992.3721
1.908200741,-0.003038231,-0.2199683,-0.1234471,-0.5333676,0.158224,0.8007571,31.17324,0.6922411,-36.9113,992.3721
1.910660267,-0.06483872,-0.1606662,-0.1234083,-0.5329964,0.1642407,0.7922073,31.17324,0.6922411,-36.9113,992.3721
1.913119316,-0.1266198,0.07631646,-0.001495283,-0.5328911,0.1654853,0.8038992,31.17324,0.6922411,-36.9113,992.3721
1.915578365,-0.002977093,-0.1606396,-0.001494818,-0.532328,0.1581149,0.807057,31.16774,0.7071231,-37.35824,992.3721
1.918037415,0.05882528,-0.1605891,-0.001494353,-0.5328766,0.1587068,0.801254,31.16774,0.7071231,-37.35824,992.3721
1.920495987,-0.06479616,-0.1605387,-0.06243103,-0.5295169,0.1617529,0.7964688,31.16774,0.7071231,-37.35824,992.3721
1.922955513,-0.002974321,0.07644383,-0.06241141,-0.5319365,0.1621638,0.799415,31.16774,0.7071231,-37.35824,992.3721
1.925414562,-0.06477487,0.1356529,-0.123329,-0.5332992,0.1551997,0.8060004,31.16774,0.7071231,-37.35824,992.3721
1.927873135,-0.06475453,0.01714415,-0.1842273,-0.5319052,0.1582463,0.8002603,31.16774,0.7071231,-37.35824,992.3721
1.932791233,0.05886968,-0.2197243,-0.2450488,-0.5343016,0.156202,0.8040986,31.16774,0.7071231,-37.35824,992.3721
1.935253143,0.1824541,-0.1011893,-0.06216036,-0.5348581,0.1640416,0.8019269,31.16774,0.7071231,-37.35824,992.3721
1.937709331,-0.003007632,-0.1603905,-0.06214083,-0.532298,0.1527533,0.8068849,31.16774,0.7071231,-37.35824,992.3721
1.940168381,-0.1266096,-0.2195731,-0.1230585,-0.5284545,0.1534031,0.8000767,31.16774,0.7071231,-37.35824,992.3721
1.942627907,0.1824375,-0.1010381,-0.06208267,-0.5328956,0.1621187,0.8013636,31.16774,0.7071231,-37.35824,992.3704
1.945086479,-0.003024199,-0.04177331,0.05981111,-0.534362,0.1611397,0.8008587,31.16774,0.7071231,-37.35824,992.3704
1.947546005,-0.1266262,0.0174728,-0.1230191,-0.5333479,0.1572219,0.8021814,31.16774,0.7071231,-37.35824,992.3704
1.950004578,0.1206195,0.07670037,0.05983096,-0.5333318,0.1576731,0.8041378,31.16774,0.7071231,-37.35824,992.3704
1.952463627,-0.003021369,-0.04178981,-0.001124979,-0.5344058,0.1597772,0.7954745,31.16774,0.7071231,-37.35824,992.3704
1.954922199,0.182384,-0.0417767,-0.1229989,-0.53729,0.1557968,0.7982838,31.16774,0.7071231,-37.35824,992.3704
1.957381725,-0.003077732,-0.04176359,-0.001085972,-0.5387959,0.1601975,0.7969806,31.16774,0.7071231,-37.35824,992.3704
1.959841251,-0.003076789,-0.1009835,0.05985151,-0.5313411,0.1590714,0.8085362,31.16774,0.7071231,-37.35824,992.3704
1.964758873,0.2440728,0.1359748,0.1207128,-0.5362566,0.1576284,0.8051315,31.17515,1.04613,-36.51698,992.3704
1.967217445,-0.06501123,0.01746602,-0.001199447,-0.5319196,0.1616492,0.800855,31.17515,1.04613,-36.51698,992.3704
1.969676971,-0.1267923,0.07669359,-0.06213621,-0.5303907,0.1581689,0.8051007,31.17515,1.04613,-36.51698,992.3704
1.972135544,0.1822549,0.01743652,0.0597576,-0.5309135,0.1591938,0.8022246,31.17515,1.04613,-36.51698,992.3704
1.974595070,0.05859476,0.07666409,0.05973882,-0.5304295,0.1625829,0.8037859,31.17515,1.04613,-36.51698,992.3704
1.977054119,0.1203778,-0.1010591,-0.06215423,-0.5343528,0.1644972,0.8038795,31.17515,1.04613,-36.51698,992.3704
1.979512691,0.12034,-0.1602603,0.05973958,-0.5367837,0.1610722,0.8033041,31.17515,1.04613,-36.51698,992.3704
1.981972218,0.1203022,0.01748907,0.0597208,-0.5343794,0.1592444,0.7978849,31.17515,1.04613,-36.51698,992.3704
1.984430790,0.05846294,-0.04174946,0.05970205,-0.5367371,0.1619472,0.8086727,31.17515,1.04613,-36.51698,992.373
1.986890316,0.1820475,0.01749664,-0.00125383,-0.5328362,0.1615224,0.8071705,31.17515,1.04613,-36.51698,992.373
1.989348888,0.1201888,-0.1009749,0.05968371,-0.5304659,0.1607239,0.7988713,31.17515,1.04613,-36.51698,992.373
1.991807938,-0.003451873,0.135989,-0.001272171,-0.5294417,0.159198,0.8026982,31.17515,1.04613,-36.51698,992.373
1.996726036,-0.003449751,-0.04175839,-0.1231839,-0.5318805,0.1630207,0.8057539,31.17515,1.04613,-36.51698,992.373
1.999185562,-0.06525012,0.1359538,-0.00127095,-0.5309914,0.1622362,0.7960108,31.17515,1.04613,-36.51698,992.373
2.001644135,-0.003428172,-0.041788,-0.1231448,-0.5313578,0.1562104,0.8050458,31.17515,1.04613,-36.51698,992.373
2.004103184,0.05837438,-0.04177489,0.1206424,-0.5372022,0.1551462,0.8070018,31.17515,1.04613,-36.51698,992.373
2.006561756,0.05835605,-0.1009948,-0.06220689,-0.533388,0.1601918,0.7998493,31.17515,1.04613,-36.51698,992.373
2.009021282,-0.003463782,-0.100963,-0.1840616,-0.5372927,0.1562843,0.7982994,31.17515,1.04613,-36.51698,992.373
2.011479855,-0.003462721,-0.1601644,0.05974475,-0.5352377,0.1537016,0.8069394,31.17515,1.04613,-36.51698,992.373
2.013939381,-0.00346166,-0.100881,0.3034745,-0.5343165,0.1571949,0.8031595,31.16852,0.7049971,-37.29439,992.373
2.016398430,0.1201424,0.07684977,0.1205678,-0.5362166,0.1546585,0.8074636,31.16852,0.7049971,-37.29439,992.373
2.018857002,0.1201047,-0.1601065,-0.001344371,-0.5362295,0.1561299,0.8070254,31.16852,0.7049971,-37.29439,992.373
2.021316528,0.05826543,0.01764288,-0.001343935,-0.5338696,0.1596909,0.8003227,31.16852,0.7049971,-37.29439,992.373
2.023775101,0.1200486,-0.04159565,-0.001343499,-0.536272,0.1562115,0.8026585,31.16852,0.7049971,-37.29439,992.3714
2.026234627,0.2436138,0.01765046,0.2424055,-0.5353397,0.1635407,0.8024004,31.16852,0.7049971,-37.29439,992.3714
2.028693676,0.1199343,0.07687791,0.1204551,-0.5313857,0.1586747,0.8036684,31.16852,0.7049971,-37.29439,992.3714
2.031152248,0.1816981,-0.04161226,0.05948007,-0.533838,0.1615589,0.8047522,31.16852,0.7049971,-37.29439,992.3714
2.036070347,0.05798102,-0.04154886,0.181317,-0.532796,0.1551769,0.8074521,31.16852,0.7049971,-37.29439,992.3714
2.038529873,0.1197643,-0.1600019,-0.001551381,-0.5303693,0.1610209,0.8090762,31.16852,0.7049971,-37.29439,992.3714
2.040988445,-0.06567774,0.01774753,0.1203234,-0.5264121,0.1580773,0.8118626,31.16852,0.7049971,-37.29439,992.3714
2.043447495,-0.003855611,0.076975,0.05934843,-0.530932,0.1616399,0.8018177,31.16852,0.7049971,-37.29439,992.3714
2.045907021,0.05794706,0.07695081,-0.001607362,-0.5358929,0.1641416,0.7961121,31.16852,0.7049971,-37.29439,992.3714
2.048365593,0.1815318,-0.04153937,0.1202674,-0.5353264,0.1553181,0.7987378,31.16852,0.7049971,-37.29439,992.3714
2.050824642,-0.06573115,-0.2784585,0.2421039,-0.5318725,0.1523973,0.8000725,31.16852,0.7049971,-37.29439,992.3714
2.053283691,-0.003909026,0.0770272,0.05921645,-0.5327248,0.1516652,0.8126798,31.16852,0.7049971,-37.29439,992.3714
2.055742741,0.366901,0.07700302,0.1810721,-0.5319244,0.1616583,0.8003699,31.16852,0.7049971,-37.29439,992.3714
2.058201313,0.1195799,0.1954449,0.1200781,-0.5304742,0.1655618,0.8009685,31.16852,0.7049971,-37.29439,992.3714
2.060660839,0.1195423,0.07691747,0.1200404,-0.5333802,0.1654809,0.803903,31.16852,0.7049971,-37.29439,992.3714
2.063119888,0.05770328,0.01766029,-0.06280877,-0.5363095,0.1620696,0.8023611,31.90793,1.080185,-37.72848,992.3714
2.068037987,0.05768647,-0.1600312,0.120023,-0.5303467,0.1561558,0.8084345,31.90793,1.080185,-37.72848,992.3679
2.070496559,0.1194698,-0.04151496,-0.06282618,-0.5338569,0.1615952,0.8028113,31.90793,1.080185,-37.72848,992.3679
2.072956085,-0.06597211,0.01773115,0.120005,-0.5329792,0.1695116,0.7972316,31.90793,1.080185,-37.72848,992.3679
2.075414658,-0.06595136,0.1361916,-0.06284414,-0.5354412,0.1666284,0.7937605,31.90793,1.080185,-37.72848,992.3679
2.077873707,0.05767232,-0.04155022,-0.06282441,-0.5353609,0.1573131,0.7963744,31.90793,1.080185,-37.72848,992.3679
2.080332756,0.1194557,0.07692888,-0.001867534,-0.5313691,0.1523745,0.8015242,31.90793,1.080185,-37.72848,992.3679
2.082791805,-0.004184827,-0.04156129,-0.1237412,-0.5327999,0.1542202,0.8064504,31.90793,1.080185,-37.72848,992.3679
2.085251331,0.1194194,-0.04154819,-0.001828062,-0.53437,0.1592263,0.7988553,31.90793,1.080185,-37.72848,992.3679
2.087709904,-0.004221085,-0.04153519,-0.06276461,-0.53342,0.165075,0.7995206,31.90793,1.080185,-37.72848,992.3679
2.090168953,-0.004219788,-0.1599882,0.05912939,-0.5348909,0.1607294,0.7964801,31.90793,1.080185,-37.72848,992.3679
2.092628002,0.057583,0.1362272,-0.1846378,-0.5358509,0.1616501,0.7989451,31.90793,1.080185,-37.72848,992.3679
2.095087051,-0.06603803,0.01771838,-0.1236426,-0.5342752,0.1556692,0.806509,31.90793,1.080185,-37.72848,992.3679
2.097545624,-0.004215838,-0.04152027,-0.001729469,-0.5347278,0.1541481,0.8093772,31.90793,1.080185,-37.72848,992.3679
2.100005150,-0.004214541,-0.04150727,-0.001728917,-0.5323471,0.1615269,0.8071666,31.90793,1.080185,-37.72848,992.3679
2.104923248,-0.1277566,0.1361806,-0.1844627,-0.5329248,0.1631389,0.7989689,31.90793,1.080185,-37.72848,992.3672
2.107382298,-0.004113488,0.07690481,-0.001593323,-0.5353267,0.1620694,0.8028386,31.90793,1.080185,-37.72848,992.3672
2.109840870,-0.004112191,-0.1600515,-0.1234671,-0.5347902,0.1586074,0.8056363,31.90793,1.080185,-37.72848,992.3672
2.112300396,-0.06591239,0.07693092,-0.06249116,-0.5328358,0.1547711,0.8030697,31.16213,1.440412,-37.33577,992.3672
2.114758968,0.05771124,0.07690673,-0.001534377,-0.5348082,0.1543023,0.8011287,31.16213,1.440412,-37.33577,992.3672
2.117218018,0.05769308,-0.1008166,-0.06247105,-0.5347987,0.1542842,0.8020991,31.16213,1.440412,-37.33577,992.3672
2.119677544,-0.1277294,-0.1007849,-0.1233886,-0.5357655,0.1581112,0.8056284,31.16213,1.440412,-37.33577,992.3672
2.122136116,-0.06588786,-0.04152027,-0.2452241,-0.5323544,0.1586477,0.8046466,31.16213,1.440412,-37.33577,992.3672
2.124595642,-0.004065674,-0.1007403,-0.001398492,-0.5308603,0.1605381,0.8085793,31.16213,1.440412,-37.33577,992.3672
2.127054215,-0.06586587,0.01775748,-0.06233519,-0.5348384,0.1630395,0.8033512,31.16213,1.440412,-37.33577,992.3672
2.129513264,-0.004043683,-0.1599472,-0.1232527,-0.5353802,0.1641006,0.7985343,31.16213,1.440412,-37.33577,992.3672
2.131972313,-0.004042387,-0.1006639,-0.123214,-0.534823,0.1644564,0.8058242,31.16213,1.440412,-37.33577,992.3672
2.136890888,-0.1276234,-0.159815,-0.06219948,-0.5318939,0.1620822,0.8037819,31.16213,1.440412,-37.33577,992.3672
2.139351845,-0.1275833,0.07716723,-0.1231171,-0.5333263,0.1566982,0.8041065,31.16213,1.440412,-37.33577,992.3672
2.141808510,-0.06574177,0.07714293,-0.1840155,-0.5322832,0.155136,0.8098743,31.16213,1.440412,-37.33577,992.3672
2.144267082,-0.06572113,-0.04134736,-0.1839577,-0.5343282,0.1601104,0.8037387,31.16213,1.440412,-37.33577,992.3654
2.146726608,-0.06570049,0.01789863,-0.001088501,-0.5304239,0.1582324,0.8017043,31.16213,1.440412,-37.33577,992.3654
2.149185181,-0.1892828,0.01789298,-0.1229625,-0.5318766,0.1548163,0.8011211,31.16213,1.440412,-37.33577,992.3654
2.151644707,-0.06562038,-0.04134566,-0.001049552,-0.5362206,0.1537018,0.8064619,31.16213,1.440412,-37.33577,992.3654
2.154103756,-0.003798304,-0.1597988,-0.1229235,-0.5367247,0.158066,0.807577,31.16213,1.440412,-37.33577,992.3654
2.156562328,-0.1274001,-0.2782146,-0.06194774,-0.5314136,0.161139,0.8022911,31.16213,1.440412,-37.33577,992.3654
2.159021854,-0.1891615,-0.04119502,-0.06192826,-0.5348161,0.1615501,0.8047599,31.16213,1.440412,-37.33577,992.3654
2.161480427,-0.06549916,0.1957501,-0.1837831,-0.5362481,0.1619517,0.8086688,31.16852,0.7049971,-37.29439,992.3654
2.163939953,-0.1890815,-0.0412435,-0.1227882,-0.5348151,0.1572087,0.802193,31.16852,0.7049971,-37.29439,992.3654
2.168857575,-0.1889822,0.1365,-0.3055608,-0.5338494,0.1610987,0.8032809,31.16852,0.7049971,-37.29439,992.3654
2.171317101,-0.1271213,-0.04124192,-0.1835905,-0.5358046,0.1567396,0.8007295,31.16852,0.7049971,-37.29439,992.3654
2.173775673,0.05832303,-0.2781611,-0.1225957,-0.5348368,0.1577324,0.8002679,31.16852,0.7049971,-37.29439,992.3654
2.176235199,-0.003496739,0.01809143,-0.06162005,-0.5318246,0.1547165,0.8064584,31.16852,0.7049971,-37.29439,992.3654
2.178693771,-0.1270986,0.07731878,-0.1225378,-0.5377204,0.1595376,0.8066613,31.16852,0.7049971,-37.29439,992.3654
2.181152821,-0.1270587,0.01806149,-0.06156218,-0.5333645,0.1635221,0.8043256,31.16852,0.7049971,-37.29439,992.3654
2.183611393,0.05838564,-0.1596433,-0.06154285,-0.537245,0.1586034,0.8046854,31.16852,0.7049971,-37.29439,992.3654
2.186070919,-0.1270371,-0.0411271,-0.06152352,-0.5313668,0.1586384,0.8056092,31.16852,0.7049971,-37.29439,992.3678
2.188530445,-0.2506001,0.1365849,-0.000567053,-0.5372497,0.1586125,0.8042001,31.16852,0.7049971,-37.29439,992.3678
2.190989018,0.05848593,0.07730895,-0.0005668786,-0.5363121,0.1591813,0.8003265,31.16852,0.7049971,-37.29439,992.3678
2.193448067,-0.0033339,-0.1004145,-0.0005667042,-0.5323583,0.157691,0.8036449,31.16852,0.7049971,-37.29439,992.3678
2.195906639,0.1820716,0.07731618,-0.1224408,-0.5323509,0.1571945,0.8041145,31.16852,0.7049971,-37.29439,992.3678
2.200824738,-0.0652098,0.01803459,0.06042842,-0.5383027,0.157783,0.7959281,31.16852,0.7049971,-37.29439,992.3678
2.203284264,-0.003387846,0.07726193,-0.122402,-0.5323815,0.1601462,0.8027527,31.16852,0.7049971,-37.29439,992.3678
2.205743313,0.1202161,0.01800464,-0.2442378,-0.533373,0.1591988,0.8007883,31.16852,0.7049971,-37.29439,992.3678
2.208201885,-0.003424576,-0.1004671,-0.06134968,-0.5392702,0.1625758,0.799974,31.16852,0.7049971,-37.29439,992.3678
2.210661411,-0.003423515,-0.04120248,0.121481,-0.5372813,0.1567445,0.7997707,31.16852,0.7049971,-37.29439,992.3678
2.213119984,-0.06522389,0.1365095,0.2433171,-0.5324086,0.1616448,0.8008589,31.16852,0.7049971,-37.29439,992.3678
2.215579510,-0.06520337,0.1364667,-0.06144501,-0.5338522,0.1615861,0.8032966,31.16852,0.7049971,-37.29439,992.3678
2.218038082,-0.1269843,0.07719073,0.1213857,-0.528891,0.1557088,0.8069516,31.16852,0.7049971,-37.29439,992.3678
2.220497131,-0.1269444,0.01793344,-0.06146382,-0.5323378,0.1523475,0.8025023,31.16852,0.7049971,-37.29439,992.3678
2.222956657,0.1203013,0.2548599,-0.1223817,-0.5392475,0.154335,0.7972819,31.16852,0.7049971,-37.29439,992.3678
2.225415230,-0.06514088,0.1363138,0.1823425,-0.5377978,0.1649899,0.8019814,31.16852,0.7049971,-37.29439,992.3644
2.227874756,0.05848251,-0.1598942,-0.0005261858,-0.5293713,0.1658132,0.8140771,31.16852,0.7049971,-37.29439,992.3644
2.232792378,0.05848457,0.01784947,-0.1223619,-0.5324459,0.1641272,0.7985111,31.16852,0.7049971,-37.29439,992.3644
2.235250950,-0.1269382,-0.04138917,-0.0004491313,-0.5373226,0.1582702,0.7964212,31.16852,0.7049971,-37.29439,992.3644
2.237710476,-0.2505012,0.07708993,-0.000448986,-0.5387146,0.155702,0.8026622,31.16852,0.7049971,-37.29439,992.3644
2.240169525,0.1203862,-0.1006334,-0.1223231,-0.5323222,0.1629256,0.8106099,31.16852,0.7049971,-37.29439,992.3644
2.242628574,-0.003254544,-0.04136872,0.06052675,-0.5299966,0.165106,0.7994934,31.16852,0.7049971,-37.29439,992.3644
2.245087624,-0.06505498,-0.1005887,-0.0004293954,-0.5353753,0.1607159,0.7969692,31.16852,0.7049971,-37.29439,992.3644
2.247546196,-0.06503452,-0.04132408,0.06050789,-0.534217,0.1536288,0.8112984,31.16852,0.7049971,-37.29439,992.3644
2.250005722,0.05858887,0.07715491,-0.0004482593,-0.5352514,0.1561387,0.8070176,31.16852,0.7049971,-37.29439,992.3644
2.252464294,0.05857047,0.01789762,-0.06138525,-0.5323578,0.1601009,0.8051788,31.16852,0.7049971,-37.29439,992.3644
2.254923821,-0.1886538,-0.100574,-0.1223031,-0.5337835,0.1551862,0.8064895,31.16852,0.7049971,-37.29439,992.3644
2.257382870,-0.250396,0.01792361,-0.06132755,-0.5338072,0.1552316,0.8040634,31.16852,0.7049971,-37.29439,992.3644
2.259841442,-0.06491289,0.1363841,-0.06130828,-0.5324017,0.1587384,0.7997946,31.5444,0.3373089,-37.36867,992.3644
2.262300968,-0.126694,0.01787513,-0.1222262,-0.5347605,0.1599971,0.809565,31.5444,0.3373089,-37.36867,992.3644
2.264759541,-0.06485269,-0.04136352,-0.06125065,-0.5294439,0.1620952,0.8042477,31.5444,0.3373089,-37.36867,992.367
2.269677639,0.05879103,0.1955759,0.06064296,-0.5347954,0.1562066,0.8036173,31.5444,0.3373089,-37.36867,992.367
2.272136688,0.120574,0.1362814,-0.1221875,-0.5328463,0.1499695,0.7990315,31.5444,0.3373089,-37.36867,992.367
2.274596214,0.1205362,0.1362386,-0.0002748502,-0.5347776,0.1513506,0.8024904,31.5444,0.3373089,-37.36867,992.367
2.277054787,-0.003104616,0.2546619,0.1215995,-0.5324562,0.1559499,0.7924226,31.5444,0.3373089,-37.36867,992.367
2.279513836,0.1204993,-0.1008163,0.1215613,-0.5270387,0.1650872,0.8018963,31.5444,0.3373089,-37.36867,992.367
2.281972885,-0.003141465,-0.04155158,-0.0003511491,-0.5319082,0.1746462,0.8100113,31.5444,0.3373089,-37.36867,992.367
2.284431934,-0.1267434,0.01769453,0.06058611,-0.534901,0.1708745,0.8016608,31.5444,0.3373089,-37.36867,992.367
2.286890507,-0.1267036,0.07692199,-0.2441186,-0.5362992,0.15771,0.8007646,31.5444,0.3373089,-37.36867,992.367
2.289350033,-0.1266638,0.1361308,-0.2440419,-0.5318155,0.1489128,0.8038445,31.5444,0.3373089,-37.36867,992.367
2.291809082,-0.003021074,0.1360881,-0.122091,-0.5337283,0.1478478,0.8077103,31.5444,0.3373089,-37.36867,992.367
2.294268131,-0.003020131,-0.04165374,-0.1220526,-0.5338427,0.161568,0.8042669,31.5444,0.3373089,-37.36867,992.367
2.296727181,-0.1266221,-0.04164063,-0.06107715,-0.5328708,0.1635174,0.804807,31.5444,0.3373089,-37.36867,992.367
2.299185753,-0.06478088,-0.04162752,-0.0001208283,-0.5348546,0.1625884,0.8013948,31.5444,0.3373089,-37.36867,992.367
2.301645279,-0.06476054,0.01761859,-0.0001207992,-0.532342,0.1547665,0.803551,31.5444,0.3373089,-37.36867,992.367
2.304103851,-0.0647402,-0.1008531,-0.0001207702,-0.5284229,0.1552712,0.8045061,31.5444,0.3373089,-37.36867,992.367
2.306562901,-0.002918371,0.07687769,-0.121995,-0.5323618,0.1591442,0.804177,31.5444,0.3373089,-37.36867,992.3636
2.309022427,-0.1265204,-0.1008456,-0.1219567,-0.5324076,0.1573033,0.798292,31.5444,0.3373089,-37.36867,992.3636
2.313940525,-0.1264021,-0.04158638,0.0609122,-0.5313997,0.1553262,0.8001625,31.17324,0.6922411,-36.9113,992.3636
2.316399098,-0.002759423,0.07689272,-4.409346E-05,-0.5319174,0.1587519,0.7993054,31.17324,0.6922411,-36.9113,992.3636
2.318858147,-0.06456003,0.1953346,0.06089307,-0.5298374,0.157568,0.8113888,31.17324,0.6922411,-36.9113,992.3636
2.321317196,-0.002738258,0.1360403,0.06087395,-0.5328861,0.1621006,0.802334,31.17324,0.6922411,-36.9113,992.3636
2.323776245,0.1208656,0.1359976,-0.06101945,-0.5353211,0.1577189,0.8007569,31.17324,0.6922411,-36.9113,992.3636
2.326235771,-0.06457683,-0.1009773,-0.06100027,-0.5323616,0.1557685,0.8021267,31.17324,0.6922411,-36.9113,992.3636
2.328694344,-0.126358,0.01752049,-4.39772E-05,-0.5362898,0.1576919,0.8017351,31.17324,0.6922411,-36.9113,992.3636
2.331153393,0.05908611,0.07674806,0.1218303,-0.5348638,0.1592309,0.798374,31.17324,0.6922411,-36.9113,992.3636
2.333611965,0.1826705,0.01749088,0.1827292,-0.5343347,0.1562655,0.8007022,31.17324,0.6922411,-36.9113,992.3636
2.336071491,0.1826131,0.01748534,0.0607975,-0.5308818,0.1576861,0.8046037,31.17324,0.6922411,-36.9113,992.3636
2.338530064,-0.002848684,-0.2194523,-0.0001587307,-0.5299084,0.1577041,0.8041107,31.17324,0.6922411,-36.9113,992.3636
2.340989590,-0.0028478,-0.04168426,-0.06109581,-0.5343222,0.1615454,0.8052412,31.17324,0.6922411,-36.9113,992.3636
2.343448639,0.1825575,0.195261,0.1217348,-0.5367773,0.1557559,0.8007059,31.17324,0.6922411,-36.9113,992.3636
2.345907211,0.1825001,-0.04173251,0.1826337,-0.5313357,0.1580966,0.8085049,31.17324,0.6922411,-36.9113,992.3636
2.348366737,0.05883985,0.0767467,-0.06117225,-0.5293579,0.1575906,0.8104146,31.17324,0.6922411,-36.9113,992.3636
2.353284836,0.05882228,0.1951459,0.1216393,-0.5348439,0.1640144,0.8033825,31.17324,0.6922411,-36.9113,992.3636
2.355743408,0.1206053,0.01738555,-0.06121033,-0.5347962,0.1571724,0.8041338,31.17324,0.6922411,-36.9113,992.3636
2.358202458,0.05876591,-0.101086,-0.0002539516,-0.531331,0.1580875,0.8089901,31.17324,0.6922411,-36.9113,992.3636
2.360661984,0.1205489,-0.2195203,0.06068327,-0.5308939,0.1581917,0.8036489,31.17054,0.3404785,-37.36948,992.3636
2.363120556,0.120511,0.01748071,-0.0002729319,-0.531387,0.1572306,0.8026511,31.17054,0.3404785,-37.36948,992.3636
2.365581036,0.1822746,0.2544074,-0.0002728447,-0.5347847,0.1576326,0.8056051,31.17054,0.3404785,-37.36948,992.3636
2.368038654,0.1204159,0.01739538,0.1216015,-0.5343207,0.1596139,0.8042082,31.17054,0.3404785,-37.36948,992.3636
2.370497704,0.120378,-0.2195423,0.1215633,-0.534839,0.1606297,0.8018174,31.17054,0.3404785,-37.36948,992.3636
2.372956276,0.1203403,-0.1010072,0.1215251,-0.5314019,0.1582235,0.801712,31.17054,0.3404785,-37.36948,992.3636
2.375415802,-0.06510197,0.01749054,-0.06132447,-0.536824,0.1582565,0.7973877,31.17054,0.3404785,-37.36948,992.3636
2.377875328,-0.06508151,0.017485,-0.0613052,-0.5387559,0.1572277,0.7993127,31.17054,0.3404785,-37.36948,992.3636
2.380333901,-0.06506105,-0.1602195,0.06058834,-0.533839,0.1567392,0.8016844,31.17054,0.3404785,-37.36948,992.3636
2.382792950,-0.003239156,-0.2194022,0.1824436,-0.5284452,0.1567606,0.8030974,31.17054,0.3404785,-37.36948,992.3636
2.385251522,0.05856334,0.01759881,0.06051198,-0.5294731,0.1631154,0.8018531,31.17054,0.3404785,-37.36948,992.3636
2.387711048,-0.003256549,0.01759327,-0.000444161,-0.5363725,0.164119,0.7970865,31.17054,0.3404785,-37.36948,992.3679
2.390169621,0.05854595,-0.1008783,-0.0004440157,-0.5362909,0.1562478,0.8007177,31.17054,0.3404785,-37.36948,992.3679
2.392629147,0.1821305,-0.04161351,-0.1223182,-0.5312489,0.1526262,0.8141552,31.17054,0.3404785,-37.36948,992.3679
2.397546768,-0.1887345,0.07682288,-0.000481918,-0.5334051,0.1640821,0.8004597,31.17054,0.3404785,-37.36948,992.3679
2.400006294,-0.06507225,-0.1009003,-0.122356,-0.5343098,0.1576642,0.8041456,31.17054,0.3404785,-37.36948,992.3679
2.402464867,-0.06505179,0.1952966,-0.0004433181,-0.530869,0.1595905,0.8070924,31.17054,0.3404785,-37.36948,992.3679
2.404924393,0.0585716,0.1360022,-0.0004431727,-0.5352566,0.1537379,0.8049985,31.17054,0.3404785,-37.36948,992.3679
2.407382965,0.1203546,0.2544256,-0.1223173,-0.5373282,0.1626207,0.7985029,31.17054,0.3404785,-37.36948,992.3679
2.409842014,-0.003286086,0.1358796,0.06053254,-0.5377563,0.1600885,0.8032806,31.5416,0.7039536,-37.35743,992.3679
2.412301540,-0.06508652,0.07660385,-0.0004236112,-0.5318355,0.1566662,0.8065209,31.5416,0.7039536,-37.35743,992.3679
2.414760113,-0.003264626,0.01734679,-0.06136063,-0.5328822,0.1630572,0.8033357,31.5416,0.7039536,-37.35743,992.3679
2.417219639,-0.003263623,-0.04189175,-0.06134136,-0.5313548,0.1615085,0.8086144,31.5416,0.7039536,-37.35743,992.3679
2.419678211,0.1203404,0.01735447,-0.0003849531,-0.5342523,0.1565896,0.8094516,31.5416,0.7039536,-37.35743,992.3679
2.422137261,0.3057069,-0.04188406,0.0605523,-0.5328375,0.1600783,0.8061531,31.5416,0.7039536,-37.35743,992.3679
2.424600601,0.05840504,-0.1603369,0.06053329,-0.5343835,0.1582877,0.7968832,31.5416,0.7039536,-37.35743,992.3679
2.427055359,-0.06521622,0.01741256,-0.06136002,-0.5357476,0.1532551,0.8045016,31.5416,0.7039536,-37.35743,992.3646
2.429514408,-0.06519571,0.07664014,-0.0004036136,-0.5294818,0.1621678,0.8003662,31.5416,0.7039536,-37.35743,992.3646
2.431973457,-0.1269767,0.07661606,-0.06134063,-0.5313932,0.1591712,0.8031989,31.5416,0.7039536,-37.35743,992.3646
2.434432507,-0.1269368,-0.1603401,0.12149,-0.5343143,0.1542976,0.8016101,31.5416,0.7039536,-37.35743,992.3646
2.436891079,-0.003293927,0.0174094,-0.0004223904,-0.5328054,0.1551951,0.8064817,31.5416,0.7039536,-37.35743,992.3646
2.441809178,-0.003272467,0.0766129,-0.0004220997,-0.5328636,0.1572354,0.8016924,31.5416,0.7039536,-37.35743,992.3646
2.444268704,0.05853003,0.07658882,0.1214523,-0.5304191,0.1582233,0.8021895,31.5416,0.7039536,-37.35743,992.3646
2.446727753,-0.0032898,-0.04190124,-0.1223344,-0.5319169,0.1611618,0.8008393,31.5416,0.7039536,-37.35743,992.3646
2.449186325,-0.003288739,0.01734498,-0.06135883,-0.5323743,0.1538642,0.7996381,31.5416,0.7039536,-37.35743,992.3646
2.451645851,0.1203153,0.1950387,-0.06133956,-0.5294592,0.1573027,0.7997244,31.5416,0.7039536,-37.35743,992.3646
2.454104424,-0.003325469,0.0765113,-0.000383151,-0.5328549,0.1581831,0.8031793,31.5416,0.7039536,-37.35743,992.3646
2.456563473,0.2438814,0.07648723,0.1214912,-0.5372713,0.1591362,0.8022749,31.5416,0.7039536,-37.35743,992.3646
2.459022999,0.2438048,-0.04200284,0.1214531,-0.5329034,0.1568296,0.7973098,31.5471,0.6890716,-36.91049,992.3646
2.461481571,0.0583238,0.01724338,-0.1223336,-0.5338699,0.1539054,0.7967385,31.5471,0.6890716,-36.91049,992.3646
2.463941097,0.05830546,0.01723796,0.06051623,-0.5372123,0.1561301,0.8065479,31.5471,0.6890716,-36.91049,992.3646
2.466399670,0.05828713,0.07646552,0.1214344,-0.5318079,0.1575775,0.8099487,31.5471,0.6890716,-36.91049,992.363
2.468858719,0.05826879,-0.04202454,0.1823334,-0.5319096,0.1640409,0.8033593,31.5471,0.6890716,-36.91049,992.363
2.471317768,0.120052,-0.1012443,0.1822761,-0.5358155,0.1586893,0.800792,31.5471,0.6890716,-36.91049,992.363
2.473776817,0.05821278,0.07648655,0.1822188,-0.532833,0.1542837,0.803054,31.5471,0.6890716,-36.91049,992.363
2.476235390,-0.003606989,0.1949286,-0.0006498626,-0.52992,0.1606195,0.8046899,31.5471,0.6890716,-36.91049,992.363
2.478694916,-0.003605869,0.1356343,-0.0615868,-0.5313832,0.1615629,0.8057032,31.5471,0.6890716,-36.91049,992.363
2.483613014,0.05813961,0.2540152,-0.0006300976,-0.5313808,0.15529,0.8021033,31.5471,0.6890716,-36.91049,992.363
2.486072064,0.1199228,0.1354693,0.06030724,-0.5343354,0.1572312,0.8012187,31.5471,0.6890716,-36.91049,992.363
2.488530636,0.1816867,-0.04227226,-0.0006488453,-0.533793,0.1552044,0.805519,31.5471,0.6890716,-36.91049,992.363
2.490990162,0.1198281,-0.219958,-0.0006486419,-0.5323191,0.1556869,0.8064935,31.5471,0.6890716,-36.91049,992.363
2.493449211,0.05798898,-0.04218988,-0.0006484384,-0.538271,0.1596511,0.8003576,31.5471,0.6890716,-36.91049,992.363
2.495907784,-0.06563216,0.1947554,0.0602889,-0.5323675,0.1634947,0.8062587,31.5471,0.6890716,-36.91049,992.363
2.498367310,0.0579914,-0.1607039,0.06026995,-0.5347447,0.1546627,0.8079372,31.5471,0.6890716,-36.91049,992.363
2.500825882,0.05797318,0.07627872,0.06025103,-0.5377141,0.1542213,0.8040631,31.5471,0.6890716,-36.91049,992.363
2.503285408,0.1815579,0.07625476,-0.0007050303,-0.5348638,0.1592309,0.798374,31.5471,0.6890716,-36.91049,992.363
2.505743981,0.05789789,-0.04223531,0.2430438,-0.53533,0.1601469,0.8013204,31.5471,0.6890716,-36.91049,992.363
2.508203030,0.1196812,0.01701102,0.1820303,-0.5343335,0.1577096,0.8017196,31.53688,0.7167096,-37.74052,992.3655
2.510662556,0.181445,-0.0422274,-0.06177549,-0.5294208,0.15964,0.8051399,31.53688,0.7167096,-37.74052,992.3655
2.515580654,0.1195296,0.1354796,0.06008015,-0.5343864,0.1621508,0.7989492,31.53688,0.7167096,-37.74052,992.3655
2.518039226,0.05769054,-0.04226198,-0.06181302,-0.5293841,0.1547477,0.8059538,31.53688,0.7167096,-37.74052,992.3655
2.520498276,0.05767244,0.01698435,-0.1227307,-0.5308932,0.1572259,0.8031325,31.53688,0.7167096,-37.74052,992.3655
2.522957802,0.05765434,0.135445,0.1210564,-0.5328686,0.1606202,0.8032575,31.53688,0.7167096,-37.74052,992.3655
2.525416374,-0.004165253,-0.04229656,0.1210184,-0.5333083,0.1610034,0.8086143,31.53688,0.7167096,-37.74052,992.3655
2.527875900,-0.1277669,0.07618277,-0.06183107,-0.5313932,0.1591712,0.8031989,31.53688,0.7167096,-37.74052,992.3655
2.530334473,0.05767769,0.01692581,-0.0008745155,-0.5294808,0.1578264,0.7977992,31.53688,0.7167096,-37.74052,992.3655
2.532793522,-0.1277448,0.07615349,-0.0008742539,-0.5318747,0.1552946,0.801622,31.53688,0.7167096,-37.74052,992.3655
2.535254478,-0.004101756,-0.04233646,0.1210003,-0.5347596,0.1556557,0.8069981,31.53688,0.7167096,-37.74052,992.3655
2.537711620,-0.004100459,-0.1015562,-0.0009119819,-0.534782,0.1571452,0.8055894,31.53688,0.7167096,-37.74052,992.3655
2.540170193,-0.06590065,-0.3384565,0.06002545,-0.5333446,0.1591444,0.8036996,31.53688,0.7167096,-37.74052,992.3655
2.542629719,-0.1276814,0.01704809,0.1209437,-0.5323889,0.1606427,0.8022832,31.53688,0.7167096,-37.74052,992.3655
2.547547340,0.1195465,0.017056,0.1208295,-0.5338241,0.1557462,0.8026235,31.53688,0.7167096,-37.74052,992.3639
2.550006866,0.0577074,0.01705069,0.05985436,-0.5328875,0.1606564,0.8013167,31.53688,0.7167096,-37.74052,992.3639
2.552465439,0.1194907,0.01704538,0.1817098,-0.5338039,0.157154,0.8055816,31.53688,0.7167096,-37.74052,992.3639
2.554924965,0.1812547,0.07627307,0.2425899,-0.5328447,0.1571992,0.8036332,31.53688,0.7167096,-37.74052,992.3639
2.557383537,-0.0042067,0.07624911,0.1815765,-0.5338604,0.1538872,0.7977089,31.18076,0.3128405,-36.53945,992.3639
2.559842586,0.05759609,0.01699215,0.0596452,-0.5309427,0.1602139,0.7998299,31.18076,0.3128405,-36.53945,992.3639
2.562302112,0.1193795,0.07621983,-0.1841221,-0.5294843,0.1592796,0.7983314,31.18076,0.3128405,-36.53945,992.3639
2.564760685,0.119342,-0.04227012,0.05968433,-0.5324308,0.1597586,0.7973998,31.18076,0.3128405,-36.53945,992.3639
2.567220211,0.1193045,0.1354422,0.05966558,-0.5343193,0.1576824,0.8031752,31.18076,0.3128405,-36.53945,992.3639
2.569678783,0.05746556,0.07616661,0.05964683,-0.5343382,0.1577186,0.8012344,31.18076,0.3128405,-36.53945,992.3639
2.572137833,-0.004353974,0.1353758,0.1205652,-0.535296,0.155742,0.80215,31.18076,0.3128405,-36.53945,992.3639
2.574596405,-0.06615406,0.01686716,-0.001346929,-0.534831,0.1533819,0.7981862,31.18076,0.3128405,-36.53945,992.3639
2.579514980,-0.1278945,0.07612683,-0.3059935,-0.5343335,0.1577096,0.8017196,31.18076,0.3128405,-36.53945,992.3639
2.581974029,-0.004251389,-0.1608292,-0.06214882,-0.5323867,0.1577454,0.8007336,31.18076,0.3128405,-36.53945,992.3639
2.584433079,-0.004250033,0.1353865,-0.06212929,-0.5294322,0.1591798,0.8036686,31.18076,0.3128405,-36.53945,992.3639
2.586891651,0.05755276,0.07611089,-0.001172619,-0.5323875,0.1587112,0.8012502,31.18076,0.3128405,-36.53945,992.3622
2.589351177,0.05753466,0.01685394,0.0597649,-0.5338358,0.1586616,0.8032026,31.18076,0.3128405,-36.53945,992.3622
2.591809750,-0.06608637,0.01684862,-0.001191018,-0.530457,0.1582959,0.7983078,31.18076,0.3128405,-36.53945,992.3622
2.594269276,0.05753731,0.1353094,0.1206836,-0.5328372,0.1567027,0.8041027,31.18076,0.3128405,-36.53945,992.3622
2.596728325,0.05751921,0.01680082,0.05970857,-0.5363581,0.1607161,0.7964917,31.18076,0.3128405,-36.53945,992.3622
2.599186897,0.1193026,0.01679551,0.1815641,-0.5304746,0.1597763,0.7973843,31.18076,0.3128405,-36.53945,992.3622
2.601646423,0.1810666,0.0167902,0.05963276,-0.5318736,0.1601144,0.8046897,31.18076,0.3128405,-36.53945,992.3622
2.604104996,-0.004394713,-0.1016811,0.1814883,-0.5343449,0.1572494,0.8002483,31.18076,0.3128405,-36.53945,992.3622
2.606564522,-0.0661948,0.07604998,0.2423685,-0.5333129,0.1576368,0.8060787,31.53407,1.083354,-37.72929,992.3622
2.609023094,-0.1279755,-0.101673,-0.06239339,-0.5308728,0.1552581,0.8040402,31.53407,1.083354,-37.72929,992.3622
2.611482143,0.1192706,-0.2793401,0.05950051,-0.5304256,0.1543784,0.799153,31.53407,1.083354,-37.72929,992.3622
2.613941669,0.05743166,0.01691282,0.120419,-0.5323706,0.1581966,0.8026901,31.53407,1.083354,-37.72929,992.3622
2.618859291,-0.004386519,0.07613519,0.05942532,-0.5319228,0.1597267,0.7993367,31.53407,1.083354,-37.72929,992.3622
2.621321678,-0.0661866,0.07611123,-0.001530482,-0.5313939,0.160137,0.8037154,31.53407,1.083354,-37.72929,992.3622
2.623777389,-0.00436435,0.07608727,-0.001529988,-0.535315,0.1591539,0.8022595,31.53407,1.083354,-37.72929,992.3622
2.626235962,-0.004362994,-0.1016357,-0.001529494,-0.5328954,0.158743,0.7993132,31.53407,1.083354,-37.72929,992.3622
2.628695488,0.05743986,-0.0423707,0.3640938,-0.5348307,0.1591674,0.8017704,31.53407,1.083354,-37.72929,992.3648
2.631154537,0.1192233,0.07610863,0.181168,-0.5319124,0.1645283,0.8033749,31.53407,1.083354,-37.72929,992.3648
2.633613586,0.1809873,0.1353178,-0.06263749,-0.5308554,0.1571534,0.8070141,31.53407,1.083354,-37.72929,992.3648
2.636072636,0.119129,0.1352753,-0.1235549,-0.5338352,0.1610715,0.8047365,31.53407,1.083354,-37.72929,992.3648
2.638531208,0.0572901,0.1352328,-0.06257897,-0.530403,0.1586745,0.8041459,31.53407,1.083354,-37.72929,992.3648
2.640990734,0.1190736,-0.1609748,0.05931498,-0.5333674,0.1548483,0.7987067,31.53407,1.083354,-37.72929,992.3648
2.643449306,0.05723469,-0.04245817,0.1202335,-0.5318368,0.1552221,0.8055035,31.53407,1.083354,-37.72929,992.3648
2.645908356,-0.06638622,0.01678816,0.1811329,-0.531324,0.1551811,0.8079257,31.53407,1.083354,-37.72929,992.3648
2.648367882,0.119039,-0.1016831,0.1201388,-0.533325,0.1581424,0.8051239,31.53407,1.083354,-37.72929,992.3648
2.650826454,0.1190016,-0.1016512,0.05916392,-0.5357839,0.1605573,0.8052215,31.53407,1.083354,-37.72929,992.3648
2.653285980,0.1189643,-0.04238618,-0.1236661,-0.5338006,0.1590765,0.8070999,31.53407,1.083354,-37.72929,992.3648
2.658203602,-0.004693979,-0.1015926,0.1810399,-0.5343648,0.1616271,0.8008744,31.17054,0.3404785,-37.36948,992.3648
2.660662651,0.1189104,0.01690536,-0.06276555,-0.5295054,0.1622131,0.79794,31.17054,0.3404785,-37.36948,992.3648
2.663121700,0.05707161,0.2538321,-0.1846201,-0.5323731,0.1553083,0.8006554,31.17054,0.3404785,-37.36948,992.3648
2.665581226,-0.1283507,0.1352864,0.05918645,-0.5386721,0.1556203,0.8070291,31.17054,0.3404785,-37.36948,992.3648
2.668039799,-0.1283104,0.01677777,0.05916785,-0.5332708,0.1551453,0.8089116,31.17054,0.3404785,-37.36948,992.3631
2.670498848,-0.004667154,0.01677245,0.1200864,-0.5328283,0.1542747,0.8035392,31.17054,0.3404785,-37.36948,992.3631
2.672957897,0.05713575,-0.220165,-0.001825591,-0.5338743,0.1597,0.7998375,31.17054,0.3404785,-37.36948,992.3631
2.675416946,0.1189193,-0.04239669,0.05911213,-0.5338325,0.1605841,0.8047208,31.17054,0.3404785,-37.36948,992.3631
2.677875519,0.1806834,0.3130148,-0.06278072,-0.5358317,0.1582381,0.7988356,31.17054,0.3404785,-37.36948,992.3631
2.680335045,0.05702368,0.07598443,0.1200504,-0.5323285,0.155705,0.8055231,31.17054,0.3404785,-37.36948,992.3631
2.682794094,-0.00479568,0.01672747,0.1200127,-0.5323576,0.1567252,0.8031284,31.17054,0.3404785,-37.36948,992.3631
2.685252666,0.05700729,0.07595527,-0.06283644,-0.5333621,0.1572492,0.8007257,31.17054,0.3404785,-37.36948,992.3631
2.687717438,0.1805923,0.01669843,-0.001879567,-0.5323519,0.1615359,0.8066813,31.17054,0.3404785,-37.36948,992.3631
2.692630291,-0.1285091,0.07590238,-0.001840096,-0.533388,0.1601918,0.7998493,31.17054,0.3404785,-37.36948,992.3631
2.695088863,-0.00486578,0.1943446,-0.1237138,-0.53433,0.1562564,0.8011874,31.17054,0.3404785,-37.36948,992.3631
2.697547913,-0.004864247,0.07581751,-0.001800653,-0.5338926,0.1621461,0.7994305,31.17054,0.3404785,-37.36948,992.3631
2.700007439,0.05693872,-0.1611384,0.1200742,-0.5377312,0.1581116,0.8046736,31.17054,0.3404785,-37.36948,992.3631
2.702466011,0.1187223,0.0758443,-0.001837799,-0.5357717,0.1600518,0.8061763,31.17054,0.3404785,-37.36948,992.3631
2.704925537,-0.06671939,0.1942866,-0.1846487,-0.5373138,0.1592178,0.7979081,31.17054,0.3404785,-37.36948,992.3631
2.707384109,0.118706,0.07575942,-0.001779231,-0.5353397,0.1635407,0.8024004,31.17324,0.6922411,-36.9113,992.3631
2.709843159,-0.004934288,0.1942017,0.1810328,-0.5348193,0.1596276,0.8032417,31.17324,0.6922411,-36.9113,992.3614
2.712301731,-0.06673419,0.1349076,0.1809759,-0.5348539,0.1616226,0.8008782,31.17324,0.6922411,-36.9113,992.3614
2.714761257,0.1186912,0.1940983,0.180919,-0.5348369,0.161108,0.8023182,31.17324,0.6922411,-36.9113,992.3614
2.717220783,-0.06675052,0.07557125,0.1808622,-0.5338484,0.1567573,0.800714,31.17324,0.6922411,-36.9113,992.3614
2.719679356,-0.06672953,0.01631452,0.1198682,-0.5342991,0.1590902,0.8061334,31.17324,0.6922411,-36.9113,992.3614
2.724596977,0.05689592,-0.1021432,-0.00202391,-0.5339007,0.1602327,0.7974271,31.17324,0.6922411,-36.9113,992.3614
2.727056503,-0.06672487,0.07558798,-0.06296041,-0.5304701,0.1631429,0.79992,31.17324,0.6922411,-36.9113,992.3614
2.729515076,-0.06670389,0.07556424,-0.06294061,-0.5338358,0.1586616,0.8032026,31.17324,0.6922411,-36.9113,992.3614
2.731974602,0.05692003,0.01630751,-0.001983712,-0.5337763,0.1580654,0.8090094,31.17324,0.6922411,-36.9113,992.3614
2.734433651,-0.06670076,0.1347684,0.05895406,-0.5357533,0.1576056,0.8065832,31.17324,0.6922411,-36.9113,992.3614
2.736892223,-0.06667983,-0.04297306,-0.002001588,-0.533889,0.1573173,0.796848,31.17324,0.6922411,-36.9113,992.3614
2.739351749,-0.0666589,-0.04295961,-0.06293812,-0.5304151,0.15918,0.8031912,31.17324,0.6922411,-36.9113,992.3614
2.741810322,0.05696496,-0.1021792,0.05895595,-0.5357797,0.1581384,0.8041728,31.17324,0.6922411,-36.9113,992.3614
2.744269848,-0.004854401,0.01631904,0.1198746,-0.5372494,0.1552369,0.8021498,31.17324,0.6922411,-36.9113,992.3614
2.746728420,-0.06665436,0.01631396,0.1807741,-0.5328656,0.1567571,0.8011914,31.17324,0.6922411,-36.9113,992.3614
2.749187469,-0.004831939,0.194008,0.058843,-0.529453,0.1553621,0.7991766,31.17324,0.6922411,-36.9113,992.3623
2.751646995,0.2423754,0.1939471,0.05882452,-0.5299238,0.1562871,0.8016378,31.17324,0.6922411,-36.9113,992.3623
2.754105568,0.1804978,0.1938861,-0.002131107,-0.5303514,0.1561648,0.8079493,31.17324,0.6922411,-36.9113,992.3623
