Time (s),Gyroscope X (deg/s),Gyroscope Y (deg/s),Gyroscope Z (deg/s),Accelerometer X (g),Accelerometer Y (g),Accelerometer Z (g),Magnetometer X (uT),Magnetometer Y (uT),Magnetometer Z (uT),Barometer (hPa)
0.000000000,-0.08018526,-0.02848563,-0.1003889,-0.5618649,0.1582213,0.7873959,18.46733,-17.7794,-28.17741,992.002
0.004919052,-0.2656479,-0.02848563,-0.1613452,-0.5643435,0.1616383,0.7860692,18.46733,-17.7794,-28.17741,992.002
0.012298584,-0.203827,0.03076602,-0.1613452,-0.5627756,0.1595296,0.7952139,18.46733,-17.7794,-28.17741,992.002
0.017217636,-0.01836437,-0.1469889,-0.2223015,-0.5599082,0.1606489,0.7889143,18.46733,-17.7794,-28.17741,992.002
0.022137165,-0.1420061,-0.08773727,-0.1003889,-0.5603396,0.1561942,0.7921737,18.47293,-18.51269,-28.19988,992.0002
0.027056217,-0.08018526,-0.02848563,-0.2832578,-0.5642965,0.155762,0.787337,18.47293,-18.51269,-28.19988,992.0002
0.031975746,-0.08018526,-0.08773727,-0.1613452,-0.5627965,0.1590875,0.7927722,18.47293,-18.51269,-28.19988,992.0002
0.036894798,-0.3274688,-0.2062406,-0.1003889,-0.5652748,0.1591288,0.7893951,18.47293,-18.51269,-28.19988,992.0002
0.041813373,-0.08018526,-0.02848563,-0.2223015,-0.563805,0.1586547,0.7893679,18.47293,-18.51269,-28.19988,992.0002
0.046732902,-0.203827,-0.2062406,-0.03943261,-0.5632629,0.1542179,0.7921344,18.47293,-18.51269,-28.19988,992.0002
0.051651954,-0.2656479,-0.02848563,-0.1003889,-0.5642622,0.1571427,0.7917508,18.47293,-18.51269,-28.19988,992.0002
0.056571483,-0.1420061,-0.08773727,0.02152368,-0.5613198,0.155707,0.7916806,18.47293,-18.51269,-28.19988,992.0002
0.061490536,-0.08018526,0.03076602,-0.2223015,-0.5647189,0.1580405,0.7956676,18.47293,-18.51269,-28.19988,992.0002
0.066410064,-0.1420061,-0.08773727,0.02152368,-0.5613078,0.1585771,0.7946857,18.47293,-18.51269,-28.19988,992.0002
0.071329117,-0.01836437,0.09001766,-0.1613452,-0.5627141,0.1594117,0.8015215,19.15554,-18.15186,-28.18717,992.0002
0.076248646,-0.203827,-0.1469889,0.08247998,-0.5638067,0.1639619,0.7924513,19.15554,-18.15186,-28.18717,992.0002
0.083627224,-0.203827,-0.2062406,0.08247998,-0.5627722,0.1580764,0.7946817,19.15554,-18.15186,-28.18717,992.0002
0.088546276,-0.08018526,0.09001766,-0.1003889,-0.562336,0.162522,0.7919074,19.15554,-18.15186,-28.18717,992.0002
0.093465805,-0.1420061,0.2085209,0.02152368,-0.5651697,0.1512122,0.7954524,19.15554,-18.15186,-28.18717,992.0002
0.098384857,0.04345652,0.09001766,0.02152368,-0.5623495,0.1615834,0.7899353,19.15554,-18.15186,-28.18717,992.0002
0.103304386,-0.203827,-0.02848563,0.02152368,-0.5647473,0.1580949,0.7927564,19.15554,-18.15186,-28.18717,992.0002
0.108223438,0.1670983,-0.02848563,-0.1003889,-0.5642697,0.1576391,0.7912812,19.15554,-18.15186,-28.18717,992.0002
0.113142967,-0.01836437,-0.08773727,0.1434363,-0.5628037,0.1562083,0.7902523,19.15554,-18.15186,-28.18717,992.0002
0.118062019,-0.01836437,0.03076602,0.02152368,-0.5661892,0.1561048,0.794161,19.15554,-18.15186,-28.18717,992.0002
0.122981548,0.04345652,-0.2062406,0.08247998,-0.5632597,0.1561404,0.7936526,18.47049,-17.48875,-27.72111,992.0002
0.127900600,-0.203827,0.03076602,0.1434363,-0.561896,0.1587631,0.7845003,18.47049,-17.48875,-27.72111,992.0002
0.132823467,-0.1420061,-0.2062406,0.2043926,-0.5603473,0.1600663,0.7937546,18.47049,-17.48875,-27.72111,992.0002
0.137739181,-0.203827,0.03076602,0.08247998,-0.5608654,0.1610821,0.7913637,18.47049,-17.48875,-27.72111,992.0002
0.145117760,-0.08018526,-0.1469889,0.2043926,-0.5662428,0.1581361,0.7898567,18.47049,-17.48875,-27.72111,992.0002
0.150037288,-0.1420061,0.03076602,0.02152368,-0.5628642,0.161146,0.7870123,18.47049,-17.48875,-27.72111,992.0002
0.154956341,0.04345652,0.03076602,0.2043926,-0.5666711,0.1589795,0.7966848,18.47049,-17.48875,-27.72111,992.0002
0.159875870,-0.01836437,0.1492693,0.08247998,-0.5623191,0.1620073,0.7933474,18.47049,-17.48875,-27.72111,992.0002
0.164794922,0.1052774,-0.02848563,0.08247998,-0.5642524,0.1629101,0.7963054,18.47049,-17.48875,-27.72111,992.0002
0.169714451,-0.01836437,0.03076602,0.2043926,-0.5623218,0.1624948,0.793363,18.85229,-18.53074,-27.75214,992.0002
0.174633503,0.1052774,0.09001766,0.2043926,-0.5622903,0.1552016,0.7921579,18.85229,-18.53074,-27.75214,992.0002
0.179553032,0.1052774,0.09001766,0.1434363,-0.5627754,0.1561539,0.7931635,18.85229,-18.53074,-27.75214,992.0002
0.184472084,0.04345652,-0.02848563,0.02152368,-0.5637505,0.1614432,0.7967398,18.85229,-18.53074,-27.75214,991.9986
0.189391613,0.1670983,0.09001766,-0.2223015,-0.5647271,0.1595028,0.7957146,18.85229,-18.53074,-27.75214,991.9986
0.194310188,-0.1420061,0.03076602,0.08247998,-0.5613508,0.1562488,0.788785,18.85229,-18.53074,-27.75214,991.9986
0.199229240,0.04345652,0.03076602,0.2043926,-0.5642563,0.1585777,0.7932534,18.85229,-18.53074,-27.75214,991.9986
0.204148769,-0.08018526,0.1492693,0.08247998,-0.5622572,0.1551381,0.7955544,18.85229,-18.53074,-27.75214,991.9986
0.209067821,-0.1420061,0.09001766,0.2653489,-0.5638254,0.1606225,0.78846,18.85229,-18.53074,-27.75214,991.9986
0.216447353,-0.01836437,0.09001766,0.02152368,-0.5656999,0.1618947,0.7977413,18.85229,-18.53074,-27.75214,991.9986
0.221366405,-0.01836437,0.03076602,0.1434363,-0.5647189,0.1580405,0.7956676,18.47293,-18.51269,-28.19988,991.9986
0.226285934,-0.1420061,0.2085209,0.1434363,-0.5588909,0.1586536,0.7917551,18.47293,-18.51269,-28.19988,991.9986
0.231204510,-0.01836437,-0.02848563,0.2043926,-0.563306,0.1610509,0.7918682,18.47293,-18.51269,-28.19988,991.9986
0.236123562,-0.01836437,-0.02848563,0.08247998,-0.562338,0.1620436,0.7914066,18.47293,-18.51269,-28.19988,991.9986
0.241043091,-0.01836437,0.1492693,0.08247998,-0.5633318,0.1639935,0.7909918,18.47293,-18.51269,-28.19988,991.9986
0.245962143,0.1052774,-0.08773727,0.2653489,-0.5637993,0.1634654,0.7929208,18.47293,-18.51269,-28.19988,991.9986
0.250881672,0.04345652,-0.02848563,0.08247998,-0.5608092,0.1585633,0.7956523,18.47293,-18.51269,-28.19988,991.9986
0.255800724,-0.08018526,-0.02848563,0.2043926,-0.5648007,0.1601262,0.7884521,18.47293,-18.51269,-28.19988,991.9986
0.260720253,0.04345652,-0.02848563,0.08247998,-0.5618082,0.1581124,0.7932183,18.47293,-18.51269,-28.19988,991.9986
0.265639305,-0.203827,-0.08773727,0.1434363,-0.5633336,0.1601395,0.7884405,18.47293,-18.51269,-28.19988,991.9986
0.270558834,-0.08018526,0.03076602,0.08247998,-0.5638249,0.1630324,0.7899939,18.85499,-18.17898,-27.29396,991.9986
0.275477886,-0.01836437,-0.1469889,0.2043926,-0.563814,0.1610827,0.7899312,18.85499,-18.17898,-27.29396,991.9986
0.280397415,-0.01836437,-0.1469889,0.08247998,-0.5642897,0.1653925,0.7939577,18.85499,-18.17898,-27.29396,991.9986
0.287775993,-0.08018526,0.2085209,0.02152368,-0.5589769,0.1631583,0.7855883,18.85499,-18.17898,-27.29396,991.9986
0.292695045,0.04345652,-0.02848563,0.1434363,-0.564788,0.1620306,0.7909408,18.85499,-18.17898,-27.29396,991.9986
0.297614574,0.1052774,-0.08773727,0.1434363,-0.564288,0.1600853,0.7908743,18.85499,-18.17898,-27.29396,991.9986
0.302533626,0.1052774,-0.02848563,0.1434363,-0.5613714,0.1615923,0.7899275,18.85499,-18.17898,-27.29396,991.9986
0.307453155,-0.203827,-0.08773727,0.08247998,-0.5643269,0.1553381,0.7839249,18.85499,-18.17898,-27.29396,991.9986
0.312372207,-0.08018526,-0.02848563,0.08247998,-0.5643024,0.1634882,0.791469,18.85499,-18.17898,-27.29396,991.9986
0.317291736,-0.08018526,0.03076602,0.1434363,-0.5653325,0.1635791,0.7861395,18.46463,-18.13117,-28.63559,991.9986
0.322210789,-0.203827,0.09001766,-0.03943261,-0.5627958,0.1581217,0.7922557,18.46463,-18.13117,-28.63559,991.9986
0.327130318,-0.01836437,0.03076602,0.02152368,-0.5629069,0.1646032,0.7846958,18.46463,-18.13117,-28.63559,991.9986
0.332049370,-0.01836437,-0.1469889,0.08247998,-0.5613286,0.158135,0.7922441,18.46463,-18.13117,-28.63559,991.9986
0.336968899,-0.08018526,0.03076602,0.2043926,-0.5662392,0.1566829,0.7893246,18.46463,-18.13117,-28.63559,991.9986
0.341887951,-0.01836437,-0.08773727,0.02152368,-0.5632877,0.1619804,0.7943256,18.46463,-18.13117,-28.63559,991.9986
0.349266529,-0.08018526,-0.02848563,0.2653489,-0.5632572,0.1590286,0.7956873,18.46463,-18.13117,-28.63559,992.0029
0.354186058,-0.1420061,-0.08773727,0.2043926,-0.5666957,0.1633663,0.7968256,18.46463,-18.13117,-28.63559,992.0029
0.359105110,0.1052774,-0.1469889,0.2043926,-0.5627796,0.1585729,0.7942122,18.46463,-18.13117,-28.63559,992.0029
0.364024639,-0.1420061,-0.2062406,0.2043926,-0.5633281,0.1591647,0.7884092,18.46463,-18.13117,-28.63559,992.0029
0.368943691,-0.1420061,-0.02848563,0.2653489,-0.5633383,0.1601486,0.7879553,18.84399,-18.14922,-28.18784,992.0029
0.373863220,-0.1420061,-0.08773727,0.2653489,-0.5638287,0.1587,0.7869418,18.84399,-18.14922,-28.18784,992.0029
0.378782272,-0.203827,-0.08773727,0.02152368,-0.5676457,0.1575175,0.7961603,18.84399,-18.14922,-28.18784,992.0029
0.383700847,-0.01836437,-0.08773727,0.3263052,-0.5658041,0.1654699,0.7891172,18.84399,-18.14922,-28.18784,992.0029
0.388620376,-0.01836437,-0.3839955,0.2043926,-0.564756,0.1571473,0.7912695,18.84399,-18.14922,-28.18784,992.0029
0.393539429,-0.01836437,-0.1469889,0.3263052,-0.5637652,0.1590605,0.7937503,18.84399,-18.14922,-28.18784,992.0029
0.398458958,-0.01836437,-0.1469889,0.3263052,-0.5593542,0.1590822,0.7946859,18.84399,-18.14922,-28.18784,992.0029
0.403378010,-0.08018526,-0.3247438,0.2043926,-0.5628427,0.1639979,0.7909879,18.84399,-18.14922,-28.18784,992.0029
0.408297539,0.04345652,-0.02848563,0.2653489,-0.5628039,0.159584,0.7923027,18.84399,-18.14922,-28.18784,992.0029
0.413216591,0.04345652,-0.2062406,0.1434363,-0.5642962,0.1615476,0.7909213,18.84399,-18.14922,-28.18784,992.0029
0.418136120,-0.01836437,-0.4432471,0.2043926,-0.5662397,0.1634342,0.7934253,19.15834,-18.5185,-28.1984,992.0029
0.423055172,-0.08018526,-0.02848563,0.2653489,-0.561834,0.1610551,0.7923419,19.15834,-18.5185,-28.1984,992.0029
0.427974701,-0.08018526,-0.3247438,0.2653489,-0.5711659,0.1605652,0.7880329,19.15834,-18.5185,-28.1984,992.0011
0.435353279,-0.01836437,-0.1469889,0.2043926,-0.5676628,0.1614078,0.7967708,19.15834,-18.5185,-28.1984,992.0011
0.440272331,-0.08018526,-0.2062406,0.1434363,-0.5632641,0.161935,0.7967516,19.15834,-18.5185,-28.1984,992.0011
0.445191860,-0.2656479,-0.3247438,-0.03943261,-0.5676935,0.1551983,0.7897744,19.15834,-18.5185,-28.1984,992.0011
0.450110912,-0.08018526,-0.3839955,0.1434363,-0.5623291,0.1596156,0.7908432,19.15834,-18.5185,-28.1984,992.0011
0.455030441,-0.1420061,-0.3839955,0.2043926,-0.5608591,0.1591415,0.7908159,19.15834,-18.5185,-28.1984,992.0011
0.459949493,-0.08018526,-0.3839955,0.2653489,-0.5657248,0.160496,0.794298,19.15834,-18.5185,-28.1984,992.0011
0.464869022,0.04345652,-0.3247438,0.3263052,-0.5622957,0.1561765,0.7921892,18.84679,-18.51586,-28.19908,992.0011
0.469788074,-0.1420061,-0.5024988,0.2043926,-0.563808,0.1625178,0.7914339,18.84679,-18.51586,-28.19908,992.0011
0.474707603,-0.08018526,-0.2654922,0.2653489,-0.5642596,0.1600309,0.7937855,18.84679,-18.51586,-28.19908,992.0011
0.479627609,-0.08018526,-0.2062406,0.509174,-0.5681766,0.1566289,0.7912809,18.84679,-18.51586,-28.19908,992.0011
0.484546184,0.04345652,-0.08773727,0.2653489,-0.5623091,0.1643991,0.7958518,18.84679,-18.51586,-28.19908,992.0011
0.489465237,-0.203827,-0.3247438,0.3872615,-0.5560206,0.1684467,0.7910746,18.84679,-18.51586,-28.19908,992.0011
0.496843815,-0.01836437,-0.2654922,0.2653489,-0.5583866,0.1634506,0.7962746,18.84679,-18.51586,-28.19908,992.0011
0.501763344,-0.08018526,-0.3247438,0.1434363,-0.5628161,0.1600895,0.7913479,18.84679,-18.51586,-28.19908,992.0011
0.506682396,-0.1420061,-0.4432471,0.3263052,-0.5642509,0.1609785,0.7952724,18.84679,-18.51586,-28.19908,992.0011
0.511601925,0.1052774,-0.08773727,0.3263052,-0.5593413,0.1576108,0.7951242,18.84679,-18.51586,-28.19908,992.0011
0.516520977,-0.01836437,-0.1469889,0.08247998,-0.5661929,0.1609336,0.7967435,18.47574,-18.87934,-28.21112,992.0011
0.521440506,-0.1420061,-0.2654922,0.2043926,-0.5657263,0.1624275,0.795331,18.47574,-18.87934,-28.21112,992.0011
0.526359558,-0.203827,-0.1469889,0.2653489,-0.5652933,0.161575,0.7889882,18.47574,-18.87934,-28.21112,992.0011
0.531279087,-0.1420061,-0.08773727,0.02152368,-0.5633044,0.1591193,0.7908353,18.47574,-18.87934,-28.21112,992.0011
0.536198139,-0.203827,-0.3247438,0.02152368,-0.5632599,0.1595161,0.795703,18.47574,-18.87934,-28.21112,992.0011
0.541116714,0.1052774,-0.3247438,0.1434363,-0.5594206,0.1625848,0.7899433,18.47574,-18.87934,-28.21112,992.0011
0.546036243,-0.08018526,-0.2062406,0.02152368,-0.5592918,0.1546229,0.7984267,18.47574,-18.87934,-28.21112,992.0011
0.550955295,-0.08018526,-0.5617504,0.08247998,-0.5613835,0.1620978,0.7889729,18.47574,-18.87934,-28.21112,991.9993
0.555874824,-0.203827,-0.5024988,0.1434363,-0.5647987,0.1606046,0.788953,18.47574,-18.87934,-28.21112,991.9993
0.563253879,-0.3892897,-0.2654922,0.08247998,-0.5623318,0.160103,0.7908588,18.09627,-18.14288,-28.18946,991.9993
0.568173408,-0.203827,-0.3839955,-0.1003889,-0.5662497,0.1610425,0.7909211,18.09627,-18.14288,-28.18946,991.9993
0.573092461,-0.1420061,-0.5024988,0.08247998,-0.5604007,0.1620976,0.7894503,18.09627,-18.14288,-28.18946,991.9993
0.578011036,-0.203827,-0.5617504,0.2043926,-0.5613274,0.1595791,0.7932614,18.09627,-18.14288,-28.18946,991.9993
0.582930565,-0.1420061,-0.6210021,0.2043926,-0.5627801,0.156163,0.7926783,18.09627,-18.14288,-28.18946,991.9993
0.587849617,-0.2656479,-0.5024988,0.1434363,-0.563379,0.1640842,0.7861397,18.09627,-18.14288,-28.18946,992.0037
0.592769146,-0.203827,-0.6802537,0.1434363,-0.5657896,0.1586914,0.7864721,18.09627,-18.14288,-28.18946,992.0037
0.597688198,-0.2656479,-0.798757,0.08247998,-0.562797,0.1566776,0.7912383,18.09627,-18.14288,-28.18946,992.0037
0.602607727,-0.08018526,-1.035764,0.08247998,-0.563252,0.1522683,0.7920718,18.09627,-18.14288,-28.18946,992.0037
0.607526779,-0.203827,-1.035764,0.3263052,-0.5666966,0.1551709,0.7917075,18.09627,-18.14288,-28.18946,992.0037
0.612446308,-0.08018526,-1.213519,0.4482177,-0.5628338,0.1615699,0.7904244,18.47563,-18.16093,-27.74171,992.0037
0.617365360,-0.1420061,-1.27277,0.509174,-0.5623142,0.1586226,0.7917823,18.47563,-18.16093,-27.74171,992.0037
0.622284889,-0.1420061,-1.332022,0.4482177,-0.5593947,0.1596422,0.7908199,18.47563,-18.16093,-27.74171,992.0037
0.629663467,0.1670983,-1.450525,0.6310866,-0.5623246,0.153821,0.7877441,18.47563,-18.16093,-27.74171,992.0037
0.634582519,0.1670983,-1.98379,0.6310866,-0.5657732,0.1557669,0.7863782,18.47563,-18.16093,-27.74171,992.0037
0.639502048,0.1670983,-1.746783,0.6310866,-0.5633254,0.1586773,0.7883936,18.47563,-18.16093,-27.74171,992.0037
0.644421101,0.4762028,-2.043042,0.4482177,-0.5598746,0.1629952,0.7938446,18.47563,-18.16093,-27.74171,992.0037
0.649340629,0.2907401,-1.924538,0.6310866,-0.5593504,0.1634145,0.797738,18.47563,-18.16093,-27.74171,992.0037
0.654259682,0.8471281,-1.746783,0.509174,-0.560869,0.1659109,0.7939462,18.47563,-18.16093,-27.74171,992.0037
0.659179211,1.279874,-1.391273,0.1434363,-0.5597925,0.1666951,0.8046443,18.47563,-18.16093,-27.74171,992.0037
0.664098263,2.330829,-0.5024988,-0.1003889,-0.5559098,0.1687164,0.8027351,19.16114,-18.88515,-28.20964,992.0037
0.669017792,3.443605,0.4455275,-0.527083,-0.5622668,0.1676931,0.8022689,19.16114,-18.88515,-28.20964,992.0054
0.673936844,3.999994,1.097296,-0.527083,-0.5622256,0.1570062,0.7999838,19.16114,-18.88515,-28.20964,992.0054
0.678856373,4.247277,1.156547,-0.7099518,-0.5672032,0.1566468,0.790788,19.16114,-18.88515,-28.20964,992.0054
0.683775425,4.494561,0.9787923,-0.4661267,-0.5667002,0.1474629,0.7866051,19.16114,-18.88515,-28.20964,992.0054
0.688694000,4.618202,0.6825341,-0.03943261,-0.5642135,0.1459593,0.7899352,19.16114,-18.88515,-28.20964,992.0054
0.693613529,5.11277,0.860289,-0.03943261,-0.5622659,0.1541905,0.7940674,19.16114,-18.88515,-28.20964,992.0054
0.698532581,5.483695,1.097296,0.02152368,-0.5608445,0.1615241,0.7938054,19.16114,-18.88515,-28.20964,992.0054
0.703452110,6.163725,2.104573,-0.1613452,-0.5584155,0.1610951,0.7918295,19.16114,-18.88515,-28.20964,992.0054
0.710831165,6.287366,1.867567,-0.2832578,-0.5657318,0.1634023,0.7953623,18.47013,-18.14605,-28.18865,992.0054
0.715750694,6.781934,2.163825,0.08247998,-0.5573283,0.1575197,0.8009311,18.47013,-18.14605,-28.18865,992.0054
0.720669746,7.152859,2.874845,-0.2223015,-0.5548176,0.1583806,0.8082211,18.47013,-18.14605,-28.18865,992.0054
0.725589275,7.523784,3.882123,-0.2832578,-0.5539786,0.1673353,0.7992762,18.47013,-18.14605,-28.18865,992.0054
0.730507851,8.327456,5.244911,-0.7099518,-0.5579078,0.1769757,0.8035018,18.47013,-18.14605,-28.18865,992.0054
0.735426903,9.007485,6.133685,-1.258559,-0.5506802,0.1796606,0.7938179,18.47013,-18.14605,-28.18865,992.0054
0.740346432,9.131127,6.607698,-1.319515,-0.5671875,0.1638493,0.7968452,18.47013,-18.14605,-28.18865,992.0054
0.745267391,8.945664,6.785453,-1.136646,-0.5677676,0.1625731,0.7866128,18.47013,-18.14605,-28.18865,992.0054
0.750185013,8.574739,6.31144,-0.8928207,-0.561969,0.1709576,0.7844064,18.47013,-18.14605,-28.18865,992.0054
0.755104065,7.771068,5.718924,-0.7709081,-0.569271,0.169862,0.7873443,18.47013,-18.14605,-28.18865,992.0054
0.760023594,7.771068,5.481917,-0.6489956,-0.5644131,0.1723796,0.7854431,18.47013,-18.14605,-28.18865,992.0054
0.764942646,7.091038,4.533891,-0.3442141,-0.5734221,0.1857142,0.7723496,18.8606,-18.91227,-27.31644,992.0054
0.769862175,6.781934,4.652394,-0.6489956,-0.5580322,0.1791431,0.7919195,18.8606,-18.91227,-27.31644,992.0054
0.774781227,6.843754,4.711646,-0.8318644,-0.5565068,0.177116,0.7966973,18.8606,-18.91227,-27.31644,992.0054
0.779704094,6.905575,5.60042,-1.136646,-0.5599295,0.1761192,0.796208,18.8606,-18.91227,-27.31644,992.0054
0.784619808,7.21468,6.252189,-1.258559,-0.555061,0.1834385,0.7983447,18.8606,-18.91227,-27.31644,992.0054
0.789539337,7.771068,8.088989,-1.929078,-0.5505437,0.1895245,0.8140399,18.8606,-18.91227,-27.31644,992.0054
0.794458389,9.440232,10.99232,-2.782466,-0.5475367,0.193269,0.823846,18.8606,-18.91227,-27.31644,992.0037
0.801836967,13.33495,18.57653,-4.915936,-0.5317631,0.2071558,0.8450398,18.8606,-18.91227,-27.31644,992.0037
0.806756496,16.92056,23.73142,-6.439843,-0.5492151,0.1787353,0.8437863,18.8606,-18.91227,-27.31644,992.0037
0.811675549,17.72423,26.39775,-6.744625,-0.5608718,0.1663983,0.7939619,18.8551,-18.89739,-27.76337,992.0037
0.816595077,19.20793,28.1753,-6.561756,-0.5860609,0.1681155,0.8204426,18.8551,-18.89739,-27.76337,992.0037
0.821514130,19.88796,29.30108,-5.952193,-0.5829706,0.1716787,0.7880006,18.8551,-18.89739,-27.76337,992.0037
0.826433659,20.50617,30.0121,-5.220717,-0.5956081,0.1685212,0.794315,18.8551,-18.89739,-27.76337,992.0037
0.831352711,21.37166,30.48611,-4.550198,-0.6144477,0.1500602,0.8074727,18.8551,-18.89739,-27.76337,992.0037
0.836272240,21.43349,30.60461,-3.757766,-0.619399,0.1057721,0.7740481,18.8551,-18.89739,-27.76337,992.0037
0.841191292,21.06256,28.53081,-2.111947,-0.6290114,0.1019633,0.7385608,18.8551,-18.89739,-27.76337,992.0037
0.846109867,20.50617,24.97571,-0.2832578,-0.6424431,0.1273528,0.7307454,18.8551,-18.89739,-27.76337,992.0037
0.851029396,19.64068,22.01313,1.7283,-0.63362,0.153914,0.7490039,18.8551,-18.89739,-27.76337,992.0037
0.858408451,19.20793,19.93932,2.947426,-0.6239913,0.1803321,0.7492864,18.8551,-18.89739,-27.76337,992.0037
0.863327980,17.72423,18.75429,3.435076,-0.572773,0.2172352,0.8083134,19.18247,-19.66096,-26.95515,992.0037
0.868247032,15.93143,22.54639,2.337863,-0.5788829,0.2427182,0.7989843,19.18247,-19.66096,-26.95515,992.0037
0.873166561,16.42599,24.56095,1.423518,-0.5580115,0.2480548,0.8363703,19.18247,-19.66096,-26.95515,992.0081
0.878085613,13.39677,27.87904,-0.03943261,-0.568188,0.2651189,0.8059267,19.18247,-19.66096,-26.95515,992.0081
0.883004189,16.24053,32.67842,-3.026291,-0.5255044,0.3346764,0.8621865,19.18247,-19.66096,-26.95515,992.0081
0.887923717,13.45859,37.3593,-6.378887,-0.5088041,0.3636184,0.8872541,19.18247,-19.66096,-26.95515,992.0081
0.892842770,14.88047,41.32916,-11.13348,-0.4734299,0.3930165,0.8709126,19.18247,-19.66096,-26.95515,992.0081
0.897762299,12.22217,49.50589,-16.80241,-0.4283776,0.4670825,0.9219567,19.18247,-19.66096,-26.95515,992.0081
0.902681351,9.440232,58.33438,-23.38569,-0.4181132,0.514922,0.9505962,19.18247,-19.66096,-26.95515,992.0081
0.907600880,6.411008,68.46642,-30.15184,-0.4107572,0.5385544,0.916335,19.18247,-19.66096,-26.95515,992.0081
0.912519932,5.545516,76.64314,-37.71042,-0.4491772,0.5787556,0.913084,19.93289,-19.31553,-26.49536,992.0081
0.917439461,3.07268,81.50178,-45.02518,-0.4892119,0.4539267,0.9963208,19.93289,-19.31553,-26.49536,992.0081
0.922358513,3.07268,85.64939,-49.96264,-0.5458193,0.3688408,1.059119,19.93289,-19.31553,-26.49536,992.0081
0.927278042,9.625694,76.88015,-55.63157,-0.4754808,0.3658054,1.098258,19.93289,-19.31553,-26.49536,992.0081
0.932197094,21.98987,65.91859,-66.42083,-0.5521496,0.3183206,1.538716,19.93289,-19.31553,-26.49536,992.0081
0.937116623,22.48444,61.77098,-71.78499,-0.2841815,0.3824823,1.469628,19.93289,-19.31553,-26.49536,992.0081
0.942035675,21.92805,60.70445,-73.73559,-0.2036361,0.690469,1.236075,19.93289,-19.31553,-26.49536,992.0081
0.949414253,17.72423,54.60153,-76.84436,-0.2552259,0.9021397,1.341848,19.93289,-19.31553,-26.49536,992.0081
0.954333782,8.389277,48.73561,-77.75871,-0.4932266,0.855829,1.435539,19.93289,-19.31553,-26.49536,992.0081
0.959252834,-1.625708,38.18882,-74.28419,-0.5505043,0.8983377,1.456308,21.44674,-19.01897,-24.75698,992.0081
0.964172363,-10.34245,26.93101,-68.24952,-0.4365013,0.7999583,1.450762,21.44674,-19.01897,-24.75698,992.0081
0.969091415,-16.64818,14.90293,-59.95947,-0.2959979,0.6746405,1.437822,21.44674,-19.01897,-24.75698,992.0081
0.974010944,-20.60472,3.111851,-50.02359,-0.1167193,0.5296336,1.426846,21.44674,-19.01897,-24.75698,992.0081
0.978929996,-21.84114,-4.472359,-40.14867,0.1060083,0.4145809,1.425699,21.44674,-19.01897,-24.75698,992.0081
0.983849525,-19.55377,-9.627252,-31.37097,0.2523851,0.3206265,1.381671,21.44674,-19.01897,-24.75698,992.0081
0.988768578,-14.54627,-13.53786,-23.44665,0.3727777,0.2521165,1.346927,21.44674,-19.01897,-24.75698,992.0081
0.993688107,-7.931438,-15.78942,-16.43668,0.4320619,0.2056718,1.328929,21.44674,-19.01897,-24.75698,992.0081
0.998606682,-0.9456778,-18.27799,-10.09722,0.4476757,0.1846663,1.312104,21.44674,-19.01897,-24.75698,992.0081
1.003525734,5.483695,-21.59608,-4.367329,0.4242502,0.179056,1.314059,21.44674,-19.01897,-24.75698,992.0081
1.008445263,10.61483,-25.38819,1.423518,0.4025697,0.1811012,1.298765,23.26743,-18.71229,-23.40103,992.0081
1.013368606,13.64405,-30.30607,6.970541,0.3874356,0.1895924,1.30693,23.26743,-18.71229,-23.40103,992.0081
1.018283844,14.69501,-35.28321,11.78609,0.3854069,0.2041791,1.308386,23.26743,-18.71229,-23.40103,992.0081
1.023202896,14.20044,-40.0826,15.74825,0.3970433,0.2189441,1.306821,23.26743,-18.71229,-23.40103,992.0081
1.030582428,10.12026,-45.94851,19.28371,0.3945952,0.2102482,1.301222,23.26743,-18.71229,-23.40103,992.0081
1.035501480,6.781934,-48.91109,20.80762,0.3853795,0.1781941,1.289588,23.26743,-18.71229,-23.40103,992.0098
1.040420055,3.999994,-51.04415,21.78292,0.3713032,0.1315729,1.272186,23.26743,-18.71229,-23.40103,992.0098
1.045339584,2.701755,-52.46619,22.20961,0.367959,0.08654767,1.252805,23.26743,-18.71229,-23.40103,992.0098
1.050258636,3.010859,-52.7032,22.69726,0.3412466,0.06907233,1.261689,23.26743,-18.71229,-23.40103,992.0098
1.055178165,4.803665,-54.00673,23.61161,0.2518565,0.03093083,1.250518,23.26743,-18.71229,-23.40103,992.0098
1.060097217,7.338322,-56.55455,25.62317,0.1462658,0.02121049,1.250588,25.14414,-18.38913,-22.55572,992.0098
1.065016746,9.563873,-59.57639,28.30524,0.03523925,0.03949407,1.2113,25.14414,-18.38913,-22.55572,992.0098
1.069935798,11.35668,-63.48699,31.90166,-0.04381144,0.07217087,1.199887,25.14414,-18.38913,-22.55572,992.0098
1.074855327,11.17122,-67.75311,35.49809,-0.1033955,0.1187087,1.186817,25.14414,-18.38913,-22.55572,992.0098
1.079774380,8.945664,-70.24168,39.15546,-0.1365394,0.1615679,1.174382,25.14414,-18.38913,-22.55572,992.0098
1.084693908,6.040083,-71.95998,42.32519,-0.1514966,0.183199,1.158205,25.14414,-18.38913,-22.55572,992.0098
1.092072487,1.71262,-71.66372,47.01883,-0.1610905,0.1827296,1.126709,25.14414,-18.38913,-22.55572,992.0098
1.096991539,-0.5129315,-70.30093,50.24951,-0.1875673,0.1570656,1.104254,25.14414,-18.38913,-22.55572,992.0098
1.101911068,-1.563887,-68.52338,53.72401,-0.2229238,0.1608821,1.092043,25.14414,-18.38913,-22.55572,992.0098
1.106830120,-1.625708,-66.39033,57.50331,-0.2650966,0.1216646,1.056659,24.7897,-19.51566,-21.69636,992.0098
1.111749649,-1.440245,-63.8425,62.01407,-0.2937647,0.1412765,1.037616,24.7897,-19.51566,-21.69636,992.0098
1.116668701,-1.440245,-60.58367,64.57424,-0.3186256,0.1688404,1.012485,24.7897,-19.51566,-21.69636,992.0115
1.121588230,-2.058454,-57.79884,68.41449,-0.3705687,0.1526584,0.9924853,24.7897,-19.51566,-21.69636,992.0115
1.126507282,-3.109409,-56.3768,72.13282,-0.4219928,0.20875,1.019954,24.7897,-19.51566,-21.69636,992.0115
1.131426811,-4.036722,-51.39966,74.20534,-0.4529551,0.2097272,1.005187,24.7897,-19.51566,-21.69636,992.0115
1.136345863,-3.974901,-50.33313,77.00932,-0.5492333,0.2077445,0.9612449,24.7897,-19.51566,-21.69636,992.0115
1.141268730,-5.025856,-49.32586,78.77705,-0.6360973,0.2499719,0.9569998,24.7897,-19.51566,-21.69636,992.0115
1.146184444,-6.014991,-51.16265,80.36192,-0.7432325,0.2586876,0.909605,24.7897,-19.51566,-21.69636,992.0115
1.151103973,-7.684155,-56.43605,82.43443,-0.8193364,0.2875097,0.8970731,24.7897,-19.51566,-21.69636,992.0115
1.156022548,-10.09517,-62.71672,83.59261,-0.8769391,0.2756953,0.9015369,25.18452,-20.95194,-20.9086,992.0157
1.163401604,-15.28812,-74.15229,84.20216,-0.8743455,0.3014485,0.8819489,25.18452,-20.95194,-20.9086,992.0157
1.168321132,-18.25553,-79.54419,83.16591,-0.8599696,0.3209534,0.8630349,25.18452,-20.95194,-20.9086,992.0157
1.173240185,-21.34657,-84.69908,80.48383,-0.8216205,0.3025862,0.8723275,25.18452,-20.95194,-20.9086,992.0157
1.178159714,-24.25215,-88.07642,77.80176,-0.790337,0.2648079,0.8470683,25.18452,-20.95194,-20.9086,992.0157
1.183078766,-26.35406,-90.50574,74.44916,-0.7541718,0.247824,0.833603,25.18452,-20.95194,-20.9086,992.0157
1.187998295,-26.53953,-90.9205,69.99935,-0.7307086,0.2225026,0.8165759,25.18452,-20.95194,-20.9086,992.0157
1.192916870,-25.36493,-89.79472,65.1838,-0.7256996,0.1847097,0.8056124,25.18452,-20.95194,-20.9086,992.0157
1.197835922,-22.39753,-88.84669,60.18538,-0.7242314,0.1461468,0.7820293,25.18452,-20.95194,-20.9086,992.014
1.202755451,-17.20457,-86.8914,55.30888,-0.7450445,0.09153797,0.7712241,25.18452,-20.95194,-20.9086,992.014
1.207674503,-10.09517,-86.23962,51.52959,-0.7991986,0.02184482,0.7427297,26.98249,-23.81537,-23.54853,992.014
1.212594032,-1.749349,-86.06187,49.15229,-0.840663,-0.02646827,0.7245272,26.98249,-23.81537,-23.54853,992.014
1.217513084,6.720113,-87.83942,47.56743,-0.8876705,-0.01764121,0.6737293,26.98249,-23.81537,-23.54853,992.014
1.222432613,13.89134,-90.09098,46.83596,-0.9022526,0.03266122,0.6633234,26.98249,-23.81537,-23.54853,992.014
1.227351665,19.08429,-93.05357,45.12918,-0.8957255,0.08975106,0.6651003,26.98249,-23.81537,-23.54853,992.014
1.234730244,22.54626,-95.60139,41.65467,-0.8433989,0.1644616,0.6592976,26.98249,-23.81537,-23.54853,992.014
1.239649772,22.54626,-96.72717,38.42399,-0.8138738,0.2053415,0.652112,26.98249,-23.81537,-23.54853,992.014
1.244568825,20.93892,-96.78642,34.70565,-0.7686108,0.2389609,0.6494197,26.98249,-23.81537,-23.54853,992.014
1.249488354,18.89883,-95.54213,30.43871,-0.7423227,0.2456996,0.6406803,26.98249,-23.81537,-23.54853,992.014
1.254407406,16.98238,-93.46832,26.04986,-0.7085683,0.2300743,0.6316482,25.85299,-26.89629,-26.26612,992.014
1.259326935,16.17871,-89.73547,21.96579,-0.6988453,0.2071295,0.6114115,25.85299,-26.89629,-26.26612,992.014
1.264245987,16.42599,-86.00262,18.36937,-0.7131068,0.1960627,0.5966076,25.85299,-26.89629,-26.26612,992.014
1.269165516,17.84787,-82.74377,15.44347,-0.7513798,0.1732986,0.569973,25.85299,-26.89629,-26.26612,992.014
1.274084568,19.51704,-80.84772,13.18808,-0.8051004,0.1957907,0.5415173,25.85299,-26.89629,-26.26612,992.014
1.279004097,20.93892,-79.8997,11.11557,-0.8340489,0.1923353,0.5299913,25.85299,-26.89629,-26.26612,992.014
1.283923149,21.98987,-80.1367,9.896443,-0.8650079,0.195235,0.5167435,25.85299,-26.89629,-26.26612,992.014
1.291301727,23.16447,-80.72923,8.067755,-0.9023604,0.198628,0.500165,25.85299,-26.89629,-26.26612,992.014
1.296221256,22.54626,-81.855,7.092454,-0.9010621,0.2095731,0.489338,25.85299,-26.89629,-26.26612,992.014
1.301140308,20.50617,-82.80303,6.056197,-0.8727916,0.2317091,0.492729,25.85299,-26.89629,-26.26612,992.014
1.306059837,16.54963,-82.50677,3.496032,-0.8342887,0.250635,0.4901066,23.6868,-30.80726,-27.66953,992.014
1.310978889,11.66578,-80.43296,0.6310866,-0.794453,0.2659742,0.4713356,23.6868,-30.80726,-27.66953,992.014
1.315898418,6.411008,-76.75936,-3.270116,-0.7602813,0.242294,0.4499034,23.6868,-30.80726,-27.66953,992.014
1.320817470,0.9707699,-71.78223,-7.171319,-0.7261602,0.216782,0.422101,23.6868,-30.80726,-27.66953,992.0123
1.325736999,-3.542155,-64.84978,-10.88965,-0.7105106,0.1735276,0.3953379,23.6868,-30.80726,-27.66953,992.0123
1.330656051,-6.880483,-57.38408,-13.93747,-0.7301897,0.1224643,0.3521063,23.6868,-30.80726,-27.66953,992.0123
1.335575580,-9.229677,-49.38511,-16.49763,-0.7543649,0.08407936,0.3068903,23.6868,-30.80726,-27.66953,992.0123
1.340494633,-10.28063,-41.32688,-18.32632,-0.7967972,0.05693175,0.2519882,23.6868,-30.80726,-27.66953,992.0123
1.347873211,-9.229677,-28.88404,-19.54545,-0.8825573,-0.0008840591,0.1993717,23.6868,-30.80726,-27.66953,992.0123
1.352792740,-7.931438,-20.94431,-19.30162,-0.9431153,-0.0001700588,0.1586211,22.56596,-33.6124,-29.48388,992.0123
1.357711792,-7.375051,-13.65636,-19.24067,-1.01226,0.01497568,0.09849682,22.56596,-33.6124,-29.48388,992.0123
1.362631321,-7.993259,-6.605418,-19.42353,-1.063144,0.05069995,0.06801453,22.56596,-33.6124,-29.48388,992.0146
1.367550373,-9.106035,-0.798757,-20.09405,-1.123777,0.08241823,0.0384549,22.56596,-33.6124,-29.48388,992.0146
1.372469902,-11.14612,4.593143,-21.49605,-1.193798,0.1209851,0.003365459,22.56596,-33.6124,-29.48388,992.0146
1.377390861,-14.42263,9.037016,-23.26378,-1.221229,0.1767336,-0.01744211,22.56596,-33.6124,-29.48388,992.0146
1.382308483,-18.25553,13.24388,-25.76299,-1.263628,0.2232721,-0.07435172,22.56596,-33.6124,-29.48388,992.0146
1.387227535,-22.39753,17.3915,-29.17654,-1.281177,0.2760214,-0.08659695,22.56596,-33.6124,-29.48388,992.0146
1.392151356,-26.23042,20.70959,-32.77296,-1.286657,0.3161654,-0.1231366,22.56596,-33.6124,-29.48388,992.0146
1.397065639,-28.08505,22.07238,-36.18652,-0.7719738,0.1658742,0.3062586,22.56596,-33.6124,-29.48388,992.0146
1.404444694,-27.46684,109.2315,-49.35307,-0.991444,-0.04487225,-0.366793,21.87246,-34.66187,-30.85989,992.0129
1.409364223,-28.20869,84.28661,-42.40406,0.9408939,0.2381759,-1.173738,21.87246,-34.66187,-30.85989,992.0129
1.414283275,6.411008,120.1931,-57.52122,-0.3590336,0.2912752,0.4472097,21.87246,-34.66187,-30.85989,992.0129
1.419202804,23.28811,126.2368,-49.35307,-0.2719523,0.3752455,1.211477,21.87246,-34.66187,-30.85989,992.0129
1.424121857,17.22966,134.4727,-38.13712,0.7636343,0.4322784,2.275411,21.87246,-34.66187,-30.85989,992.0129
1.429040432,-1.502066,152.663,-20.88649,-0.1938747,0.4641465,1.501123,21.87246,-34.66187,-30.85989,992.0129
1.433959961,-8.920572,151.0632,-6.805581,-0.2616862,0.4394757,1.250353,21.87246,-34.66187,-30.85989,992.0129
1.438879013,-7.498692,164.0986,6.239066,0.1639565,0.189005,1.362154,21.87246,-34.66187,-30.85989,992.0129
1.443798542,-7.993259,197.9313,16.96737,0.4187945,0.2201385,1.331444,21.87246,-34.66187,-30.85989,992.0129
1.448717594,4.556382,227.7941,17.02833,0.06288062,-0.3989586,1.171282,21.87246,-34.66187,-30.85989,992.0129
1.453637123,18.15698,241.7182,21.84388,-0.9883813,-0.6553126,0.8963925,23.31098,-33.9705,-29.94044,992.0129
1.458556175,38.86698,231.8824,23.85543,-1.690283,-0.6223456,1.015854,23.31098,-33.9705,-29.94044,992.0129
1.463475704,52.22029,208.6558,17.02833,-2.169004,-0.3090611,1.170147,23.31098,-33.9705,-29.94044,992.0129
1.468394756,52.96214,178.2005,1.057781,-2.551801,-0.1981259,1.003024,23.31098,-33.9705,-29.94044,992.0129
1.473314285,61.98799,136.2503,-14.12034,-2.27266,-0.3299651,0.8056911,23.31098,-33.9705,-29.94044,992.0129
1.478233337,68.29372,107.0392,-18.93588,-1.696722,0.1370723,1.219903,23.31098,-33.9705,-29.94044,992.0129
1.483157158,47.39826,99.21802,-18.44823,-1.260051,0.6761449,1.082602,23.31098,-33.9705,-29.94044,992.0155
1.488071918,31.44847,91.04129,-11.25539,-1.085109,1.412528,0.8071438,23.31098,-33.9705,-29.94044,992.0155
1.495450497,0.1670983,84.22736,-9.000008,-0.7123111,1.651833,0.8112714,23.31098,-33.9705,-29.94044,992.0155
1.500370026,-35.25627,82.15355,-5.708367,-0.8625664,1.998238,0.7600061,23.31098,-33.9705,-29.94044,992.0155
1.505289078,-51.57699,75.28036,-12.65738,-1.09861,1.7603,0.2284803,28.18336,-36.30726,-25.27085,992.0155
1.510208607,-40.01648,52.58697,-31.06618,-1.047895,0.9969639,0.150181,28.18336,-36.30726,-25.27085,992.0155
1.515127659,-34.4526,42.69195,-44.04988,-0.6412317,-0.009958596,0.8229544,28.18336,-36.30726,-25.27085,992.0155
1.520047188,-30.80517,45.12127,-41.12397,-0.5814061,-0.3196813,0.8518613,28.18336,-36.30726,-25.27085,992.0155
1.524966240,-30.12514,46.01004,-33.19966,-0.6001223,0.02408801,0.7955476,28.18336,-36.30726,-25.27085,992.0155
1.529885292,-25.48857,45.71378,-30.94427,-0.6883594,0.4208517,0.6633325,28.18336,-36.30726,-25.27085,992.0155
1.534804821,-24.56126,42.15868,-33.44348,-0.774754,0.5421765,0.6548221,28.18336,-36.30726,-25.27085,992.0155
1.539723873,-22.83027,37.89257,-36.85703,-0.8112409,0.3284194,0.6963359,28.18336,-36.30726,-25.27085,992.0155
1.544642925,-19.98651,33.03393,-36.73512,-0.7408141,-0.01654038,0.7886022,28.18336,-36.30726,-25.27085,992.0155
1.549561977,-17.26639,31.67114,-32.83392,-0.6713021,-0.1702714,0.8525342,28.18336,-36.30726,-25.27085,992.0155
1.554481506,-14.17535,30.90087,-27.77455,-0.6986642,-0.06549553,0.8182464,31.49957,-36.73167,-24.38107,992.0155
1.559400558,-11.51705,27.46428,-24.11717,-0.7111682,0.08001833,0.7773743,31.49957,-36.73167,-24.38107,992.0155
1.564320087,-9.662423,23.49442,-22.04465,-0.707432,0.1223412,0.7850125,31.49957,-36.73167,-24.38107,992.0137
1.571699142,-8.178722,19.64306,-18.93588,-0.6635473,0.08202541,0.7969547,31.49957,-36.73167,-24.38107,992.0137
1.576618194,-6.509558,19.46531,-16.25381,-0.6449391,0.09371929,0.806402,31.49957,-36.73167,-24.38107,992.0137
1.581537723,-6.571379,20.05782,-13.99842,-0.6419216,0.1624943,0.755659,31.49957,-36.73167,-24.38107,992.0137
1.586456299,-4.902215,18.33953,-13.44982,-0.5783085,0.1610927,0.8085009,31.49957,-36.73167,-24.38107,992.0137
1.591375828,-4.53129,18.28027,-12.71834,-0.6149826,0.18291,0.7721153,31.49957,-36.73167,-24.38107,992.0137
1.596294880,-4.964036,17.68776,-11.86495,-0.5868007,0.1719674,0.7967808,31.49957,-36.73167,-24.38107,992.0137
1.601214409,-3.789439,17.09524,-11.07252,-0.6583025,0.1358328,0.7651349,32.92465,-34.98658,-23.87672,992.0137
1.606133461,-3.356693,16.08796,-9.365745,-0.6141913,0.08929622,0.7967827,32.92465,-34.98658,-23.87672,992.0164
1.611052990,-2.058454,16.02871,-7.415143,-0.6835607,0.0856073,0.7525646,32.92465,-34.98658,-23.87672,992.0164
1.615972042,-1.192961,14.66592,-5.891236,-0.5974091,0.125774,0.7842196,32.92465,-34.98658,-23.87672,992.0164
1.620891571,-0.6983942,15.5547,-3.635854,-0.630016,0.1584201,0.7704823,32.92465,-34.98658,-23.87672,992.0164
1.625810623,0.04345652,13.7179,-3.087247,-0.5970982,0.2239806,0.7752274,32.92465,-34.98658,-23.87672,992.0164
1.630729675,0.4762028,14.31041,-2.904378,-0.5446338,0.1663539,0.8040234,32.92465,-34.98658,-23.87672,992.0164
1.638108730,1.032591,12.65137,-1.990034,-0.6090633,0.193956,0.7840737,32.92465,-34.98658,-23.87672,992.0164
1.643027782,1.279874,12.59211,-1.319515,-0.6161447,0.1326473,0.7729409,32.92465,-34.98658,-23.87672,992.0164
1.647947311,1.71262,12.59211,0.2043926,-0.5677559,0.1124257,0.807825,32.92465,-34.98658,-23.87672,992.0164
1.652866363,2.825397,12.41436,0.7529992,-0.6332862,0.1624131,0.7381064,34.05084,-34.29044,-23.0218,992.0164
1.657785892,3.381785,11.17007,1.179693,-0.5908722,0.1669332,0.7772315,34.05084,-34.29044,-23.0218,992.0164
1.662704945,3.999994,11.40708,2.21595,-0.603696,0.1728123,0.7697567,34.05084,-34.29044,-23.0218,992.0164
1.667623997,3.938173,11.76259,3.069338,-0.5398652,0.1714537,0.7944371,34.05084,-34.29044,-23.0218,992.0164
1.672543526,4.247277,11.64409,3.069338,-0.6479316,0.2215163,0.7265266,34.05084,-34.29044,-23.0218,992.0164
1.677462578,4.309098,10.51831,2.886469,-0.5805278,0.2126688,0.7621048,34.05084,-34.29044,-23.0218,992.0164
1.682382107,4.123635,11.17007,2.947426,-0.6001754,0.2194063,0.7576268,34.05084,-34.29044,-23.0218,992.0164
1.687301159,4.309098,10.75531,2.947426,-0.5973275,0.218152,0.7478524,34.05084,-34.29044,-23.0218,992.0146
1.692220688,3.876352,10.22205,2.947426,-0.6169636,0.2253498,0.7448456,34.05084,-34.29044,-23.0218,992.0146
1.699599266,3.876352,9.333274,2.764557,-0.590905,0.2166384,0.7535776,34.05364,-34.65709,-23.03304,992.0146
1.704518318,3.134501,9.392526,2.581688,-0.5907612,0.2640766,0.7468433,34.05364,-34.65709,-23.03304,992.0146
1.709437847,2.639934,9.629532,1.7283,-0.575649,0.2503235,0.7331689,34.05364,-34.65709,-23.03304,992.0146
1.714356899,2.145367,12.71062,1.850212,-0.6195046,0.2987803,0.7292561,34.05364,-34.65709,-23.03304,992.0146
1.719276428,0.9707699,7.496473,-0.2832578,-0.5567322,0.2850302,0.7380108,34.05364,-34.65709,-23.03304,992.0146
1.724195480,0.7853072,9.155519,-0.7709081,-0.5645376,0.2217788,0.7520694,34.05364,-34.65709,-23.03304,992.0129
1.729115009,0.1670983,9.925791,-1.136646,-0.5971614,0.2515639,0.7348418,34.05364,-34.65709,-23.03304,992.0129
1.734034061,-0.01836437,8.859261,-1.868121,-0.5804573,0.2414423,0.7363223,34.05364,-34.65709,-23.03304,992.0129
1.738953590,-0.203827,9.629532,-2.05099,-0.5734664,0.2566572,0.7605441,34.05364,-34.65709,-23.03304,992.0129
1.743872166,-0.3892897,9.155519,-2.843422,-0.5878204,0.2462501,0.7365369,34.05364,-34.65709,-23.03304,992.0129
1.751251221,-0.6365733,9.155519,-3.270116,-0.5950236,0.2425541,0.7481304,33.6964,-35.41697,-22.16244,992.0129
1.756170750,-0.5747524,9.451777,-3.026291,-0.5973191,0.2133141,0.7457552,33.6964,-35.41697,-22.16244,992.0129
1.761089802,-0.822036,8.325996,-3.270116,-0.6101536,0.2177672,0.7362926,33.6964,-35.41697,-22.16244,992.0129
1.766009331,-0.3892897,9.21477,-2.355772,-0.5230744,0.1467005,0.7959333,33.6964,-35.41697,-22.16244,992.0129
1.770928383,-1.254782,10.57756,-2.965335,-0.6943985,0.2374595,0.634682,33.6964,-35.41697,-22.16244,992.0129
1.775847912,-0.5747524,6.844705,-3.392029,-0.5848836,0.2270066,0.7757097,33.6964,-35.41697,-22.16244,992.0129
1.780766487,-1.192961,7.674228,-3.574898,-0.6089705,0.2342371,0.716904,33.6964,-35.41697,-22.16244,992.0129
1.785686016,-1.192961,7.555725,-4.001591,-0.6067952,0.2410672,0.7438095,33.6964,-35.41697,-22.16244,992.0129
1.790605068,-2.120275,8.029737,-4.18446,-0.6202276,0.2491001,0.7252415,33.6964,-35.41697,-22.16244,992.0129
1.795524120,-2.614842,7.37797,-5.220717,-0.6001822,0.2536321,0.7271644,33.6964,-35.41697,-22.16244,992.0129
1.800443649,-3.294872,7.081711,-6.013149,-0.5898936,0.2604401,0.7331247,34.75006,-34.69266,-22.13768,992.0129
1.805362701,-4.098543,7.259467,-7.171319,-0.5777088,0.2654521,0.7317287,34.75006,-34.69266,-22.13768,992.0129
1.812742233,-5.396782,5.837427,-8.63427,-0.5869349,0.2594555,0.7350109,34.75006,-34.69266,-22.13768,992.0129
1.817661285,-6.014991,6.015182,-9.548614,-0.6021667,0.26283,0.7299032,34.75006,-34.69266,-22.13768,992.0129
1.822580337,-6.509558,5.778175,-9.548614,-0.604903,0.2633882,0.7508216,34.75006,-34.69266,-22.13768,992.0129
1.827499390,-6.756842,5.185659,-10.95061,-0.6073758,0.2373812,0.7320433,34.75006,-34.69266,-22.13768,992.0129
1.832418442,-7.065946,4.415388,-11.01157,-0.6165133,0.2172313,0.735842,34.75006,-34.69266,-22.13768,992.0129
1.837337971,-6.942304,4.711646,-11.43826,-0.6313261,0.1980825,0.7096163,34.75006,-34.69266,-22.13768,992.0129
1.842257023,-7.684155,3.40811,-11.25539,-0.6089648,0.2077284,0.7519835,34.75006,-34.69266,-22.13768,992.0129
1.847176552,-7.745976,3.526613,-11.13348,-0.6375926,0.208458,0.7255375,34.07497,-35.43289,-21.77854,992.0173
1.852095604,-7.869617,2.282328,-11.31635,-0.6119216,0.2000301,0.7449635,34.07497,-35.43289,-21.77854,992.0173
1.857015133,-7.931438,1.926818,-11.07252,-0.6297638,0.2003243,0.7208427,34.07497,-35.43289,-21.77854,992.0173
1.861934185,-7.993259,1.038044,-11.25539,-0.6217999,0.2006104,0.7353525,34.07497,-35.43289,-21.77854,992.0173
1.866853714,-8.73511,0.1492693,-11.19443,-0.6266858,0.1913959,0.7302418,34.07497,-35.43289,-21.77854,992.0173
1.871772766,-8.673289,-0.5024988,-10.76774,-0.6197456,0.1864567,0.736824,34.07497,-35.43289,-21.77854,992.0173
1.876692295,-8.858752,-1.569028,-10.46296,-0.6354056,0.1906747,0.7385443,34.07497,-35.43289,-21.77854,992.0173
1.884070873,-8.920572,-2.872565,-9.426702,-0.6329997,0.1927009,0.7356764,34.07497,-35.43289,-21.77854,992.0173
1.888989925,-9.167856,-3.583584,-8.878095,-0.6193448,0.1938631,0.7322028,34.07497,-35.43289,-21.77854,992.0173
1.893909454,-9.41514,-4.472359,-8.512357,-0.6301218,0.1986218,0.7334149,34.07497,-35.43289,-21.77854,992.0173
1.898828506,-9.476961,-5.59814,-8.085663,-0.6247029,0.1841296,0.728536,35.12111,-34.32919,-22.12563,992.0173
1.903748035,-9.662423,-6.30916,-7.780881,-0.629081,0.1782589,0.7274126,35.12111,-34.32919,-22.12563,992.0173
1.908667088,-10.03335,-7.434941,-7.354187,-0.6191544,0.1732465,0.7393088,35.12111,-34.32919,-22.12563,992.0173
1.913586616,-9.909707,-7.968206,-6.561756,-0.6357927,0.1682944,0.7354023,35.12111,-34.32919,-22.12563,992.0173
1.918505669,-9.786065,-8.85698,-6.074105,-0.6253192,0.1462993,0.7428652,35.12111,-34.32919,-22.12563,992.0173
1.923425198,-9.353319,-9.153239,-5.159761,-0.6253158,0.1448461,0.7423331,35.12111,-34.32919,-22.12563,992.0173
1.928344250,-8.487826,-9.271742,-4.062548,-0.610064,0.1554163,0.7580839,35.12111,-34.32919,-22.12563,992.019
1.933263779,-7.993259,-9.330994,-3.087247,-0.6174982,0.172897,0.7587053,35.12111,-34.32919,-22.12563,992.019
1.940642357,-8.426005,-10.10126,-2.721509,-0.6089174,0.1951009,0.7491507,35.12111,-34.32919,-22.12563,992.019
1.945561409,-8.05508,-9.982762,-2.721509,-0.6152117,0.1954038,0.7560095,35.48666,-33.95082,-22.56052,992.019
1.950480938,-7.622334,-9.923511,-2.965335,-0.6127904,0.1805246,0.7443452,35.48666,-33.95082,-22.56052,992.019
1.955399990,-7.498692,-10.27902,-2.53864,-0.5978034,0.1786056,0.7757205,35.48666,-33.95082,-22.56052,992.019
1.960319519,-6.695021,-9.449497,-2.111947,-0.604827,0.187562,0.7629559,35.48666,-33.95082,-22.56052,992.019
1.965238571,-6.756842,-8.797729,-1.990034,-0.608295,0.212208,0.7734852,35.48666,-33.95082,-22.56052,992.019
1.970158100,-6.695021,-8.797729,-2.53864,-0.6016852,0.2103135,0.7476369,35.48666,-33.95082,-22.56052,992.0207
1.975077152,-7.004125,-8.797729,-2.904378,-0.6075728,0.2102967,0.7457426,35.48666,-33.95082,-22.56052,992.0207
1.979995728,-7.065946,-9.153239,-3.20916,-0.6010956,0.1990348,0.7511547,35.48666,-33.95082,-22.56052,992.0207
1.984915256,-6.880483,-8.916232,-3.087247,-0.6106004,0.1772006,0.7665553,35.48666,-33.95082,-22.56052,992.0207
1.989834309,-6.695021,-8.027457,-3.148204,-0.6030993,0.1586272,0.7722102,35.48666,-33.95082,-22.56052,992.0207
1.994753838,-5.705886,-6.66467,-2.416728,-0.598689,0.1687758,0.7792969,35.099,-33.55125,-23.44397,992.0207
2.002132893,-3.91308,-4.827869,-1.929078,-0.5994824,0.1525008,0.7884923,35.099,-33.55125,-23.44397,992.0207
2.007052421,-2.4912,-3.168823,-1.197602,-0.5965201,0.1466874,0.787796,35.099,-33.55125,-23.44397,992.0207
2.011971473,-1.440245,-1.450525,-0.7099518,-0.5996249,0.1628998,0.7800872,35.099,-33.55125,-23.44397,992.0207
2.016891002,-0.2656479,-0.3247438,-0.2223015,-0.5976595,0.166275,0.7830926,35.099,-33.55125,-23.44397,992.0207
2.021809578,0.1670983,0.9195406,-0.2832578,-0.5978142,0.1680184,0.7680981,35.099,-33.55125,-23.44397,992.0207
2.026728630,1.156232,2.34158,0.1434363,-0.6011572,0.1803701,0.7840587,35.099,-33.55125,-23.44397,992.0207
2.031648159,1.588979,2.519335,-0.03943261,-0.6083002,0.1755723,0.7504616,35.099,-33.55125,-23.44397,992.0207
2.036567211,1.898083,2.934096,0.08247998,-0.6062722,0.1711126,0.7551573,35.099,-33.55125,-23.44397,992.0207
2.041486740,2.39265,3.941374,0.02152368,-0.6110095,0.1746321,0.7732738,35.099,-33.55125,-23.44397,992.0207
2.048865795,3.319964,5.007904,-0.4051704,-0.603313,0.1850747,0.7662625,35.099,-33.55125,-23.44397,992.0224
2.053785324,4.247277,7.140963,-0.953777,-0.5784515,0.1907799,0.8118816,35.099,-33.55125,-23.44397,992.0224
2.058703899,6.225545,10.3998,-1.868121,-0.6047645,0.1922639,0.7723313,35.099,-33.55125,-23.44397,992.0224
2.063622951,8.018352,11.40708,-2.53864,-0.5883455,0.1716209,0.7885284,35.099,-33.55125,-23.44397,992.0224
2.068542480,9.131127,12.82912,-2.599597,-0.6199992,0.1903403,0.7636551,35.099,-33.55125,-23.44397,992.0224
2.073467254,9.811157,13.18463,-2.53864,-0.5905405,0.2000276,0.781203,35.099,-33.55125,-23.44397,992.0224
2.078381061,9.687515,16.14721,-3.69681,-0.5852414,0.2561633,0.8072362,35.099,-33.55125,-23.44397,992.0224
2.083300113,12.9022,22.36864,-7.293231,-0.5316563,0.2628618,0.839542,35.099,-33.55125,-23.44397,992.0224
2.088219642,15.49868,30.48611,-11.56017,-0.5154262,0.3134612,0.8798739,35.099,-33.55125,-23.44397,992.0224
2.093138695,20.8771,42.15868,-18.20441,-0.4774998,0.3258218,0.9149175,35.1073,-33.93277,-23.00827,992.0241
2.098058224,26.31734,56.67533,-25.45821,-0.4358692,0.3372362,1.080024,35.1073,-33.93277,-23.00827,992.0241
2.102977276,33.17945,79.48722,-33.26061,-0.3619386,0.3011418,1.167112,35.1073,-33.93277,-23.00827,992.0241
2.110355854,38.31059,119.6598,-41.55067,-0.4532245,0.2281063,1.039281,35.1073,-33.93277,-23.00827,992.0241
2.115275383,36.95053,131.3917,-42.40406,-0.529717,0.2147816,1.01132,35.1073,-33.93277,-23.00827,992.0241
2.120194435,37.32145,136.9613,-41.3678,-0.4770185,0.2285287,1.057455,35.1073,-33.93277,-23.00827,992.0241
2.125113964,38.86698,148.6931,-41.85545,-0.4985379,0.2230539,1.105038,35.1073,-33.93277,-23.00827,992.0241
2.130033016,42.14348,156.0403,-44.23275,-0.5189048,0.241297,1.03296,35.1073,-33.93277,-23.00827,992.0241
2.134952545,48.07829,161.9063,-45.20805,-0.570302,0.2077174,1.160486,35.1073,-33.93277,-23.00827,992.0241
2.139871597,48.38739,167.8907,-47.95108,-0.5132395,0.3228552,1.315682,35.1073,-33.93277,-23.00827,992.0241
2.144791126,53.08578,174.1714,-50.5722,-0.5685683,0.3061094,1.350072,36.26302,-33.67556,-19.99374,992.0241
2.149710178,48.07829,182.1111,-54.04671,-0.6374079,0.3761201,1.355309,36.26302,-33.67556,-19.99374,992.0241
2.154629707,50.05656,192.3024,-58.86226,-0.5829623,0.4852532,1.387493,36.26302,-33.67556,-19.99374,992.0241
2.159548759,50.30384,197.9313,-63.86067,-0.6061784,0.4473736,1.289848,36.26302,-33.67556,-19.99374,992.0241
2.164468288,56.60957,204.6267,-69.77343,-0.7486063,0.4655916,1.291116,36.26302,-33.67556,-19.99374,992.0241
2.169387340,58.83512,208.004,-74.46706,-0.777445,0.6103926,1.280458,36.26302,-33.67556,-19.99374,992.0241
2.174306869,57.10414,211.2629,-81.35513,-0.7811069,0.6918035,1.254937,36.26302,-33.67556,-19.99374,992.0259
2.179225445,52.96214,213.6329,-85.50015,-0.8355526,0.5513511,1.254279,36.26302,-33.67556,-19.99374,992.0259
2.186604500,54.81676,216.4178,-89.52327,-0.9322112,0.3090967,1.226428,36.26302,-33.67556,-19.99374,992.0259
2.191524029,58.71148,214.9957,-86.17067,-1.102494,0.3959742,1.272367,36.26302,-33.67556,-19.99374,992.0259
2.196443081,62.6062,207.8855,-87.99936,-1.358848,0.4883365,1.323072,40.00758,-33.17328,-13.96157,992.0259
2.201362610,65.94453,194.7317,-91.71769,-1.384411,0.4102694,1.312525,40.00758,-33.17328,-13.96157,992.0259
2.206281662,74.59946,179.6817,-88.54797,-1.081507,0.9723166,1.316892,40.00758,-33.17328,-13.96157,992.0259
2.211201191,41.21617,161.7878,-90.37666,-0.9592584,1.824428,1.68454,40.00758,-33.17328,-13.96157,992.0241
2.216119766,-15.59723,148.3376,-93.54638,-0.9885125,1.459114,1.774544,40.00758,-33.17328,-13.96157,992.0241
2.221039772,-37.35818,143.4198,-93.05873,-1.167328,1.581426,1.565813,40.00758,-33.17328,-13.96157,992.0241
2.225958347,-57.57361,120.5486,-89.76709,-0.8826678,0.8286065,1.661694,40.00758,-33.17328,-13.96157,992.0241
2.230877399,-63.01385,102.7139,-76.66149,-0.3927515,0.4779585,1.580398,40.00758,-33.17328,-13.96157,992.0241
2.235796928,-51.57699,95.89993,-66.90849,-0.03062974,0.371306,1.431745,40.00758,-33.17328,-13.96157,992.0241
2.240715980,-36.92544,91.57455,-59.59373,0.1149384,0.2914393,1.312432,40.00758,-33.17328,-13.96157,992.0241
2.245635509,-22.21206,87.90096,-53.01045,0.075854,0.2519309,1.242055,44.06944,-31.31282,-6.544846,992.0241
2.250554561,-10.15699,81.62029,-47.70725,-0.008779042,0.3090569,1.224674,44.06944,-31.31282,-6.544846,992.0241
2.255474090,-3.480334,72.19927,-44.65944,-0.04023209,0.3717299,1.196838,44.06944,-31.31282,-6.544846,992.0241
2.262852669,0.6616654,54.77929,-42.70884,-0.04049072,0.369837,1.2196,44.06944,-31.31282,-6.544846,992.0241
2.267771721,1.341695,43.10671,-43.25744,0.004049409,0.3378638,1.203158,44.06944,-31.31282,-6.544846,992.0241
2.272691250,2.639934,30.72312,-45.269,0.04109038,0.2940833,1.162607,44.06944,-31.31282,-6.544846,992.0241
2.277610302,4.43274,19.46531,-48.1949,0.08462919,0.2553954,1.139646,44.06944,-31.31282,-6.544846,992.0241
2.282529831,7.338322,7.674228,-51.24272,0.1115193,0.2161149,1.114375,44.06944,-31.31282,-6.544846,992.0241
2.287448883,10.05844,-3.109571,-54.4734,0.1253995,0.2009112,1.073474,44.06944,-31.31282,-6.544846,992.0241
2.292368412,13.33495,-14.36738,-56.91166,0.1262426,0.1891246,1.052211,45.91677,-28.45662,-6.452785,992.0241
2.297287464,16.05507,-24.79567,-58.86226,0.1232082,0.1810931,1.036927,45.91677,-28.45662,-6.452785,992.0215
2.302206993,18.09516,-35.04621,-59.53278,0.1116913,0.1897037,1.014477,45.91677,-28.45662,-6.452785,992.0215
2.307126045,19.45522,-45.29674,-59.28895,0.1066203,0.1818087,0.9909602,45.91677,-28.45662,-6.452785,992.0215
2.312045574,19.64068,-54.777,-57.58217,0.08747417,0.1846694,0.9853827,45.91677,-28.45662,-6.452785,992.0215
2.316964626,19.51704,-64.37577,-54.9001,0.09860593,0.1888519,0.9757147,45.91677,-28.45662,-6.452785,992.0215
2.321884155,20.25889,-72.671,-51.12081,0.07996809,0.1757684,0.9623388,45.91677,-28.45662,-6.452785,992.0215
2.326803207,20.50617,-80.66997,-45.87856,0.07332414,0.1512085,0.9684033,45.91677,-28.45662,-6.452785,992.0215
2.331722736,21.55713,-88.43194,-39.66102,0.04723262,0.1440708,0.9465396,45.91677,-28.45662,-6.452785,992.0215
2.339106560,22.23716,-99.15649,-28.50602,0.0233559,0.1383836,0.9523796,45.91677,-28.45662,-6.452785,992.0198
2.344020367,22.97901,-105.9112,-20.70362,0.01989976,0.1442016,0.9525945,46.94215,-27.35662,-8.525656,992.0198
2.348939895,23.53539,-112.1326,-12.65738,0.009716989,0.1410481,0.95986,46.94215,-27.35662,-8.525656,992.0198
2.353858948,23.47357,-116.9912,-4.794023,-0.003011378,0.1332432,0.9538878,46.94215,-27.35662,-8.525656,992.0198
2.358778477,24.21543,-121.7906,2.825513,-0.02406223,0.1335766,0.9521291,46.94215,-27.35662,-8.525656,992.0198
2.363697529,24.27725,-125.9382,10.62792,-0.05203756,0.1460517,0.9498454,46.94215,-27.35662,-8.525656,992.0198
2.368617058,24.33907,-130.2043,17.94267,-0.07264496,0.141173,0.9401475,46.94215,-27.35662,-8.525656,992.0198
2.373535633,23.47357,-133.6409,25.07456,-0.08981609,0.156552,0.9441802,46.94215,-27.35662,-8.525656,992.0198
2.378454685,21.98987,-136.6035,32.32836,-0.1362585,0.1580268,0.9475219,46.94215,-27.35662,-8.525656,992.0137
2.383374214,19.7025,-142.3509,40.80128,-0.1147735,0.04017366,0.9222034,46.94215,-27.35662,-8.525656,992.0137
2.388293266,21.06256,-139.6846,47.3236,-0.1306679,0.1325756,0.9029618,46.94215,-27.35662,-8.525656,992.0137
2.393212795,17.53877,-142.1732,54.15071,-0.1832916,0.2315149,0.9337559,46.16603,-24.95109,-14.46146,992.0137
2.398131847,13.70587,-143.8915,59.57582,-0.1949493,0.188364,0.9664555,46.16603,-24.95109,-14.46146,992.0137
2.403051376,10.12026,-144.6617,64.26945,-0.2230549,0.1890345,0.943402,46.16603,-24.95109,-14.46146,992.0137
2.407970428,7.152859,-146.143,68.78023,-0.2508919,0.1809927,0.9428871,46.16603,-24.95109,-14.46146,992.0137
2.415349007,4.494561,-147.8613,74.69299,-0.2821756,0.1478915,0.9246032,46.16603,-24.95109,-14.46146,992.012
2.420268535,4.618202,-148.9279,77.61889,-0.2877957,0.1377182,0.9442301,46.16603,-24.95109,-14.46146,992.012
2.425187588,5.236411,-148.6316,79.93523,-0.3159718,0.1404744,0.9659133,46.16603,-24.95109,-14.46146,992.012
2.430107117,7.276501,-148.6909,81.82487,-0.3788404,0.1158568,0.9743795,46.16603,-24.95109,-14.46146,992.012
2.435026169,10.73847,-149.2834,83.83643,-0.455505,0.09854448,0.9768814,46.16603,-24.95109,-14.46146,992.012
2.439945698,13.89134,-150.4684,86.5185,-0.5332037,0.1020643,0.9863715,42.05222,-24.74455,-19.64193,992.012
2.444864750,16.54963,-152.6607,89.74919,-0.5890667,0.1205782,0.9869381,42.05222,-24.74455,-19.64193,992.012
2.449784279,19.02247,-155.2678,92.55318,-0.6208264,0.1694177,1.020324,42.05222,-24.74455,-19.64193,992.012
2.454703331,21.1862,-157.9341,94.62569,-0.6884749,0.2105798,1.029968,42.05222,-24.74455,-19.64193,992.012
2.459622860,22.85537,-161.904,96.27151,-0.7412872,0.2342006,1.045725,42.05222,-24.74455,-19.64193,992.012
2.464541912,23.72086,-166.7626,98.22211,-0.7872709,0.235256,1.04565,42.05222,-24.74455,-19.64193,992.012
2.469461441,23.28811,-172.2138,100.6604,-0.8189748,0.2357708,1.055152,42.05222,-24.74455,-19.64193,992.012
2.474380493,22.42262,-177.7242,104.1349,-0.8370054,0.222465,1.053903,42.05222,-24.74455,-19.64193,992.012
2.481759071,20.44435,-185.4861,107.7923,-0.8175427,0.2787652,1.077883,42.05222,-24.74455,-19.64193,992.012
2.486678600,18.28062,-189.1005,109.8648,-0.7989713,0.2611166,1.065511,42.05222,-24.74455,-19.64193,992.012
2.491597652,14.88047,-190.8188,111.2668,-0.7582808,0.2521323,1.069745,35.78362,-25.30808,-23.18953,992.012
2.496517181,11.4185,-189.6337,113.0345,-0.736443,0.2854668,1.123072,35.78362,-25.30808,-23.18953,992.0164
2.501436233,7.461963,-185.9009,112.303,-0.7010595,0.2372159,1.060057,35.78362,-25.30808,-23.18953,992.0164
2.506355762,6.163725,-186.0786,113.0955,-0.7280591,0.299829,1.037524,35.78362,-25.30808,-23.18953,992.0164
2.511274814,3.75271,-185.3084,112.6688,-0.7726491,0.2542892,1.051967,35.78362,-25.30808,-23.18953,992.0164
2.516194343,4.494561,-181.2793,111.3277,-0.7796423,0.2849073,1.106415,35.78362,-25.30808,-23.18953,992.0164
2.521113396,5.483695,-176.4799,110.4134,-0.8731533,0.2538808,1.078027,35.78362,-25.30808,-23.18953,992.0164
2.528491974,6.658292,-174.2876,112.2421,-0.9623516,0.2929801,1.083411,35.78362,-25.30808,-23.18953,992.0164
2.533411503,7.276501,-170.9695,113.2783,-1.044957,0.327324,1.059457,35.78362,-25.30808,-23.18953,992.0164
2.538330555,7.89471,-169.6659,115.2289,-1.138491,0.3455243,1.058866,30.63458,-25.51661,-26.65962,992.0146
2.543250084,7.585605,-167.0589,118.2158,-1.216672,0.3465936,1.016815,30.63458,-25.51661,-26.65962,992.0146
2.548169136,5.545516,-165.3406,121.8732,-1.277082,0.3952422,1.020812,30.63458,-25.51661,-26.65962,992.0146
2.553088665,4.247277,-161.0744,125.1038,-1.357002,0.4315375,0.9721364,30.63458,-25.51661,-26.65962,992.0146
2.558007717,3.010859,-158.2304,127.2983,-1.483372,0.4972875,0.9432364,30.63458,-25.51661,-26.65962,992.0146
2.562927246,2.516292,-156.4528,128.8831,-1.656146,0.4925947,0.8775,30.63458,-25.51661,-26.65962,992.0146
2.567846298,1.279874,-158.9414,130.9556,-1.792832,0.488907,0.8013036,30.63458,-25.51661,-26.65962,992.0146
2.572764873,2.207188,-162.852,132.3576,-1.872756,0.4798838,0.7244702,30.63458,-25.51661,-26.65962,992.0146
2.577684402,3.629068,-167.3551,133.1501,-1.867896,0.4317487,0.6408316,30.63458,-25.51661,-26.65962,992.0103
2.582603454,5.421874,-170.2585,132.9062,-1.821209,0.3420264,0.557944,30.63458,-25.51661,-26.65962,992.0103
2.587522983,6.967396,-171.0287,132.5405,-1.736621,0.2415679,0.4933371,25.42947,-28.55413,-31.49483,992.0103
2.594902038,10.18208,-164.5703,129.005,-1.596467,0.1544863,0.366069,25.42947,-28.55413,-31.49483,992.0103
2.599821567,13.08766,-156.3343,124.3114,-1.542462,0.06968646,0.2842502,25.42947,-28.55413,-31.49483,992.0103
2.604745865,17.41513,-145.0765,118.2158,-1.518836,-0.01334746,0.1978821,25.42947,-28.55413,-31.49483,992.0103
2.609659195,23.59722,-133.1077,110.1086,-1.560562,-0.0905949,0.08407483,25.42947,-28.55413,-31.49483,992.0103
2.614578724,31.51029,-120.5463,101.5747,-1.621303,-0.1657139,-0.02222512,25.42947,-28.55413,-31.49483,992.0103
2.619497776,40.53614,-108.6367,91.63883,-1.735115,-0.2051421,-0.1322861,25.42947,-28.55413,-31.49483,992.0068
2.624417305,48.14011,-97.9122,80.54478,-1.831215,-0.1795438,-0.2423496,25.42947,-28.55413,-31.49483,992.0068
2.629336357,54.3222,-88.7282,68.1097,-1.91162,-0.1900337,-0.3192261,25.42947,-28.55413,-31.49483,992.0068
2.634255886,56.73321,-79.72195,54.33358,-1.976534,-0.1296996,-0.4201778,25.42947,-28.55413,-31.49483,992.0068
2.639180183,55.31133,-71.1897,38.24112,-1.971932,-0.06692356,-0.4623865,17.76342,-31.65557,-33.78149,992.0068
2.644094467,50.1802,-60.93917,20.19806,-1.93988,0.03841266,-0.4723817,17.76342,-31.65557,-33.78149,992.0068
2.649013519,41.03071,-49.79987,0.02152368,-1.889252,0.1193399,-0.4983635,17.76342,-31.65557,-33.78149,992.0068
2.653933048,28.41924,-38.30505,-20.5817,-1.818557,0.1662046,-0.4930713,17.76342,-31.65557,-33.78149,992.0068
2.658852100,14.32408,-26.45472,-40.27058,-1.7479,0.2049465,-0.4967788,17.76342,-31.65557,-33.78149,992.0095
2.663771629,0.1670983,-13.30085,-57.3993,-1.624156,0.1805504,-0.3597136,17.76342,-31.65557,-33.78149,992.0095
2.671150207,-15.41177,5.896678,-75.74715,-1.582845,0.1447988,-0.3582857,17.76342,-31.65557,-33.78149,992.0095
2.676069260,-22.58299,17.33225,-83.00095,-1.526437,0.1257202,-0.3025528,17.76342,-31.65557,-33.78149,992.0095
2.680988789,-27.28138,27.81979,-86.65832,-1.483674,0.1729471,-0.251865,17.76342,-31.65557,-33.78149,992.0095
2.685907841,-29.93968,37.30005,-87.45075,-1.444338,0.1979667,-0.2149706,11.56172,-33.41738,-32.5723,992.0095
2.690827370,-32.1034,44.7065,-86.04876,-1.3958,0.2709801,-0.1581625,11.56172,-33.41738,-32.5723,992.0095
2.695746422,-51.3297,51.8167,-79.89217,-1.039695,0.5449508,2.043773,11.56172,-33.41738,-32.5723,992.0095
2.700665951,-66.22853,133.7617,-91.41291,-0.8846501,0.3940673,-0.02925888,11.56172,-33.41738,-32.5723,992.0078
2.705585003,-92.31695,110.5943,-76.17384,0.5879042,0.584774,-1.09758,11.56172,-33.41738,-32.5723,992.0078
2.710509300,-70.06143,132.1619,-93.54638,-0.5645931,0.8586019,0.5787596,11.56172,-33.41738,-32.5723,992.0078
2.715423584,-51.26788,146.0268,-86.35354,-0.4717169,0.07927354,1.008442,11.56172,-33.41738,-32.5723,992.0078
2.720343113,-50.89696,136.6058,-54.4734,0.5833635,0.2653996,2.245806,11.56172,-33.41738,-32.5723,992.0078
2.725265503,-73.5234,168.9572,-33.93113,-0.09151627,0.5342891,1.710341,11.56172,-33.41738,-32.5723,992.0078
2.730181694,-78.90182,170.6755,-16.61954,-0.02450107,0.5678744,1.122399,11.56172,-33.41738,-32.5723,992.0078
2.735100269,-69.31958,193.6059,-5.952193,0.5949519,0.279469,1.528056,13.03349,-32.34871,-33.8142,992.0078
2.740019321,-67.8977,238.0446,1.850212,0.5714346,0.2687963,1.669683,13.03349,-32.34871,-33.8142,992.0121
2.747398853,-39.27463,265.7744,1.118737,-0.8808582,-0.6217275,1.314632,13.03349,-32.34871,-33.8142,992.0121
2.752317905,-28.33233,262.5748,5.385677,-2.016668,-0.51167,0.9672159,13.03349,-32.34871,-33.8142,992.0121
2.757237434,-14.23717,234.2525,-3.452985,-2.640693,-0.2787566,0.8652188,13.03349,-32.34871,-33.8142,992.0121
2.762156486,4.494561,197.1017,-24.30004,-2.607832,-0.1706118,0.9917423,13.03349,-32.34871,-33.8142,992.0121
2.767076015,13.08766,164.0986,-48.13395,-2.523901,-0.400918,0.880736,13.03349,-32.34871,-33.8142,992.0121
2.771994591,24.58635,129.7326,-59.53278,-1.940037,-0.5087806,0.9016179,13.03349,-32.34871,-33.8142,992.0121
2.776913643,39.85611,110.0018,-59.10608,-1.416523,-0.1549936,0.9324559,13.03349,-32.34871,-33.8142,992.0121
2.781833172,43.44172,94.41864,-51.60846,-1.016074,0.3665219,0.9337519,13.03349,-32.34871,-33.8142,992.0121
2.786752224,33.3031,94.18163,-41.79449,-0.7022864,0.8898091,0.8255997,18.8977,-29.90414,-31.55204,992.0121
2.791671753,11.91307,97.97373,-32.10244,-0.4871687,1.136762,0.8152438,18.8977,-29.90414,-31.55204,992.0121
2.796590805,-10.15699,99.27728,-23.69048,-0.4615563,1.302929,0.7834608,18.8977,-29.90414,-31.55204,992.0121
2.801510334,-29.32147,99.69203,-20.94744,-0.4678268,1.1817,0.7689435,18.8977,-29.90414,-31.55204,992.0121
2.806429386,-45.58036,99.09952,-26.73829,-0.5095702,0.8683289,0.762152,18.8977,-29.90414,-31.55204,992.0121
2.813808918,-48.91869,96.9072,-40.08772,-0.7665989,0.1425017,0.7482728,18.8977,-29.90414,-31.55204,992.0121
2.818727493,-46.07493,89.08599,-44.78135,-0.885374,-0.1272267,0.6925315,18.8977,-29.90414,-31.55204,992.0121
2.823646545,-37.48182,79.90199,-46.48813,-1.036721,-0.07173862,0.7047779,18.8977,-29.90414,-31.55204,992.0104
2.828566074,-33.83439,69.53294,-43.56223,-1.030762,0.1407173,0.6921194,18.8977,-29.90414,-31.55204,992.0104
2.833485126,-30.06332,57.3271,-36.91799,-1.085214,0.4499741,0.5607057,24.00657,-28.56962,-30.6679,992.0104
2.838404655,-26.29224,46.18779,-32.59009,-1.007861,0.6524799,0.5403447,24.00657,-28.56962,-30.6679,992.0104
2.843323708,-22.95391,36.88529,-36.00365,-0.894563,0.4894828,0.6249838,24.00657,-28.56962,-30.6679,992.0104
2.848243237,-18.44099,33.38944,-40.3925,-0.847338,-0.04224555,0.8342925,24.00657,-28.56962,-30.6679,992.0104
2.853162289,-15.90633,30.48611,-36.12556,-0.707563,-0.3888235,0.8637893,24.00657,-28.56962,-30.6679,992.0104
2.858081818,-13.37168,31.31563,-27.59168,-0.7644287,-0.3003775,0.8539823,24.00657,-28.56962,-30.6679,992.0104
2.863000870,-8.858752,29.41958,-20.82553,-0.8093296,-0.008891949,0.7384285,24.00657,-28.56962,-30.6679,992.0085
2.867920399,-6.138633,24.32394,-16.61954,-0.7532333,0.2228137,0.7633619,24.00657,-28.56962,-30.6679,992.0085
2.872839451,-6.324095,22.42789,-15.7052,-0.677187,0.2895299,0.7270052,24.00657,-28.56962,-30.6679,992.0085
2.880218029,-7.436871,19.40605,-16.07094,-0.6029657,0.2596064,0.7972958,24.00657,-28.56962,-30.6679,992.0085
2.885137558,-8.302363,18.69503,-16.80241,-0.5613649,0.1871352,0.8062836,26.93772,-27.52428,-29.73398,992.0085
2.890056610,-8.302363,19.52456,-17.16815,-0.5859006,0.2000923,0.8059293,26.93772,-27.52428,-29.73398,992.0085
2.894976139,-7.993259,18.69503,-17.22911,-0.714985,0.1848706,0.7501787,26.93772,-27.52428,-29.73398,992.0085
2.899895191,-7.931438,16.44347,-15.33946,-0.7330196,0.09205671,0.8012453,26.93772,-27.52428,-29.73398,992.0085
2.904814720,-5.95317,14.48817,-13.99842,-0.6577422,0.0508589,0.7711455,26.93772,-27.52428,-29.73398,992.0129
2.909733772,-4.716752,14.60667,-11.3773,-0.5799409,0.1016282,0.8056367,26.93772,-27.52428,-29.73398,992.0129
2.914653301,-4.036722,15.37694,-9.000008,-0.6071622,0.1449192,0.798994,26.93772,-27.52428,-29.73398,992.0129
2.919572353,-3.542155,13.77715,-9.060964,-0.6261579,0.1739893,0.7743486,26.93772,-27.52428,-29.73398,992.0129
2.924491882,-3.356693,13.54014,-8.390445,-0.6318827,0.1524445,0.7761325,26.93772,-27.52428,-29.73398,992.0129
2.929410934,-3.109409,12.88837,-7.232275,-0.6362707,0.1408064,0.7704545,26.93772,-27.52428,-29.73398,992.0129
2.934330463,-2.305737,12.47361,-5.647411,-0.5982372,0.1148696,0.7931019,27.30913,-26.50351,-29.2544,992.0129
2.939249039,-1.007499,12.1181,-4.85498,-0.6624268,0.1410253,0.7463994,27.30913,-26.50351,-29.2544,992.0129
2.944168091,-0.5129315,10.81456,-3.574898,-0.6190367,0.1359148,0.7793813,27.30913,-26.50351,-29.2544,992.0129
2.951547623,0.6616654,10.93307,-1.929078,-0.6166507,0.1895506,0.7553481,27.30913,-26.50351,-29.2544,992.0129
2.956466675,1.094412,10.1628,-1.502384,-0.6405519,0.2195695,0.7298023,27.30913,-26.50351,-29.2544,992.0129
2.961386204,0.8471281,8.563003,-1.258559,-0.5919661,0.2042741,0.7881484,27.30913,-26.50351,-29.2544,992.0129
2.966305256,0.2907401,9.155519,-1.197602,-0.6214399,0.2119524,0.7289158,27.30913,-26.50351,-29.2544,992.0129
2.971224785,0.6616654,8.800009,-1.502384,-0.607628,0.1954769,0.781683,27.30913,-26.50351,-29.2544,992.0129
2.976143360,0.6616654,8.740758,-1.197602,-0.6132761,0.1916038,0.7515019,27.30913,-26.50351,-29.2544,992.0129
2.981062412,0.8471281,8.977764,-1.258559,-0.6113283,0.1964594,0.7535838,27.30913,-26.50351,-29.2544,992.0129
2.985981941,0.4143819,8.444499,-1.502384,-0.6163343,0.2053156,0.7471114,28.36289,-26.4976,-29.69905,992.0156
2.990900993,0.352561,8.148241,-1.746209,-0.6050315,0.2082059,0.7543943,28.36289,-26.4976,-29.69905,992.0156
2.995820522,-0.203827,7.970486,-1.929078,-0.613013,0.2185613,0.7445955,28.36289,-26.4976,-29.69905,992.0156
3.000739574,-0.2656479,7.081711,-2.172903,-0.6079452,0.2028359,0.7532749,28.36289,-26.4976,-29.69905,992.0156
3.005659103,-0.9456778,6.489195,-2.294816,-0.6090022,0.2010497,0.7440012,28.36289,-26.4976,-29.69905,992.0156
3.010578155,-1.378424,5.718924,-2.294816,-0.6168795,0.1986687,0.737192,28.36289,-26.4976,-29.69905,992.0156
3.015497684,-1.563887,5.185659,-2.477684,-0.607004,0.1985759,0.7468187,28.36289,-26.4976,-29.69905,992.0156
3.022876262,-2.243917,4.711646,-2.477684,-0.6119509,0.204426,0.7446191,28.36289,-26.4976,-29.69905,992.0156
3.027795315,-2.738484,3.882123,-2.599597,-0.6055298,0.204844,0.7513773,28.36289,-26.4976,-29.69905,992.0138
3.032714844,-2.985767,3.171103,-2.599597,-0.6100268,0.2001657,0.7386404,28.0639,-26.82814,-28.87906,992.0138
3.037633896,-3.356693,2.223077,-2.721509,-0.6090139,0.2039651,0.7445803,28.0639,-26.82814,-28.87906,992.0138
3.042553425,-3.85126,1.808315,-2.599597,-0.6128966,0.1836214,0.7352203,28.0639,-26.82814,-28.87906,992.0138
3.047472477,-3.85126,1.571309,-2.477684,-0.6240946,0.1795658,0.7380953,28.0639,-26.82814,-28.87906,992.0138
3.052392006,-3.603976,1.452806,-2.111947,-0.6190189,0.1657538,0.7487782,28.0639,-26.82814,-28.87906,992.0138
3.057311058,-3.85126,0.6232824,-1.624296,-0.6130745,0.153125,0.74881,28.0639,-26.82814,-28.87906,992.0138
3.062230587,-3.356693,0.6232824,-0.953777,-0.610647,0.1671643,0.7555521,28.0639,-26.82814,-28.87906,992.0138
3.067149639,-3.356693,0.3270242,-0.4051704,-0.6073039,0.1765107,0.7529112,28.0639,-26.82814,-28.87906,992.0156
3.072069168,-3.418513,0.03076602,-0.2832578,-0.6124366,0.1938072,0.7384563,28.0639,-26.82814,-28.87906,992.0156
3.079447746,-3.418513,-0.5617504,-0.1613452,-0.6049613,0.1873376,0.7488693,28.0639,-26.82814,-28.87906,992.0156
3.084366798,-3.974901,-1.391273,-0.2223015,-0.6105425,0.2040697,0.7382842,28.74697,-26.52841,-28.86821,992.0156
3.089286327,-4.53129,-2.043042,-0.6489956,-0.6168936,0.2078571,0.741371,28.74697,-26.52841,-28.86821,992.0156
3.094205379,-5.334961,-2.635558,-0.8318644,-0.612063,0.2027121,0.7319412,28.74697,-26.52841,-28.86821,992.0156
3.099124908,-6.014991,-3.287326,-1.258559,-0.6198832,0.2060079,0.7345388,28.74697,-26.52841,-28.86821,992.0156
3.104043960,-7.004125,-4.353856,-1.502384,-0.6114545,0.1947727,0.7394502,28.74697,-26.52841,-28.86821,992.0156
3.108963489,-7.498692,-4.709365,-1.807165,-0.6153875,0.2000808,0.7406238,28.74697,-26.52841,-28.86821,992.0156
3.113882541,-7.993259,-5.59814,-1.807165,-0.6119006,0.1879354,0.7397202,28.74697,-26.52841,-28.86821,992.0156
3.118802070,-8.549647,-6.072154,-1.807165,-0.6070244,0.1913825,0.7402763,28.74697,-26.52841,-28.86821,992.0156
3.123721123,-8.920572,-6.368412,-1.929078,-0.6103681,0.1796263,0.7413834,28.74697,-26.52841,-28.86821,992.0156
3.128640652,-8.858752,-6.546166,-1.685253,-0.6049135,0.1896568,0.7552552,28.74697,-26.52841,-28.86821,992.0156
3.133559704,-8.487826,-6.427663,-1.746209,-0.5989673,0.1808819,0.7578382,28.74225,-26.51566,-29.2513,992.0156
3.138478279,-8.796931,-6.605418,-1.746209,-0.6098067,0.1775631,0.7476246,28.74225,-26.51566,-29.2513,992.0156
3.145857811,-8.426005,-6.901676,-1.441427,-0.6038184,0.175458,0.7586752,28.74225,-26.51566,-29.2513,992.0156
3.150776863,-7.807796,-6.486915,-1.56334,-0.598382,0.1753978,0.7644551,28.74225,-26.51566,-29.2513,992.0156
3.155696392,-7.498692,-6.486915,-1.441427,-0.5953813,0.1719218,0.7691743,28.74225,-26.51566,-29.2513,992.0156
3.160615444,-7.127767,-6.072154,-1.258559,-0.6027706,0.1738867,0.7649282,28.74225,-26.51566,-29.2513,992.0156
3.165534973,-6.447737,-5.775895,-1.07569,-0.5923997,0.1593208,0.7663182,28.74225,-26.51566,-29.2513,992.0156
3.170454025,-5.767707,-5.420385,-0.8928207,-0.6028125,0.1638414,0.7544103,28.74225,-26.51566,-29.2513,992.0156
3.175373554,-5.334961,-5.657392,-0.1613452,-0.5944402,0.1585006,0.7570835,28.74225,-26.51566,-29.2513,992.0156
3.180292129,-4.654931,-5.183379,-0.2223015,-0.5987008,0.1625301,0.7742414,28.73945,-26.14901,-29.24006,992.0156
3.185211181,-4.345827,-5.124127,0.2653489,-0.6042699,0.1695955,0.7589765,28.73945,-26.14901,-29.24006,992.0156
3.190130710,-3.974901,-5.005624,0.6920429,-0.595863,0.1622597,0.7640132,28.73945,-26.14901,-29.24006,992.0156
3.195049763,-3.294872,-5.005624,1.057781,-0.6027935,0.1729663,0.7619857,28.73945,-26.14901,-29.24006,992.0156
3.199969292,-2.553021,-4.709365,1.057781,-0.5983365,0.1714531,0.7667559,28.73945,-26.14901,-29.24006,992.0156
3.204888344,-1.872991,-4.235353,1.301606,-0.5973639,0.1724368,0.7667795,28.73945,-26.14901,-29.24006,992.0156
3.212267875,-1.13114,-3.583584,1.362562,-0.6037942,0.1778225,0.7626351,28.73945,-26.14901,-29.24006,992.0156
3.217186451,-0.9456778,-3.346578,1.179693,-0.6013018,0.1811296,0.7695181,28.73945,-26.14901,-29.24006,992.0156
3.222105503,-0.5129315,-3.879843,1.423518,-0.6014984,0.1819889,0.7496404,28.73945,-26.14901,-29.24006,992.0156
3.227025032,-0.5129315,-3.761339,0.935868,-0.5935393,0.182284,0.763665,28.73945,-26.14901,-29.24006,992.0156
3.231944084,-0.822036,-3.998346,1.057781,-0.5917878,0.1971601,0.7515037,28.35448,-25.39767,-29.66534,992.0156
3.236863613,-0.6983942,-4.472359,0.935868,-0.5976247,0.1864382,0.7482947,28.35448,-25.39767,-29.66534,992.0156
3.241782665,-0.1420061,-4.116849,0.7529992,-0.5846603,0.1880041,0.7749429,28.35448,-25.39767,-29.66534,992.0156
3.246702194,0.1052774,-4.176101,0.7529992,-0.5824429,0.2236622,0.7731548,28.35448,-25.39767,-29.66534,992.0156
3.251621246,-0.08018526,-3.998346,-0.1003889,-0.5779034,0.2190976,0.784624,28.35448,-25.39767,-29.66534,992.0156
3.256546020,0.04345652,-2.991068,-0.5880393,-0.5621484,0.2204838,0.796192,28.35448,-25.39767,-29.66534,992.0156
3.261459827,0.4143819,-1.27277,-1.319515,-0.585801,0.2278456,0.7825416,28.35448,-25.39767,-29.66534,992.0156
3.266379356,0.04345652,-0.9172603,-1.929078,-0.5711623,0.2246663,0.7769786,28.35448,-25.39767,-29.66534,992.0156
3.271298408,-0.4511106,-0.798757,-2.599597,-0.5731377,0.2280605,0.7771037,28.35448,-25.39767,-29.66534,992.0173
3.276217937,-0.4511106,-0.3839955,-3.270116,-0.571099,0.2284023,0.7858376,28.35448,-25.39767,-29.66534,992.0173
3.281136989,-0.5747524,0.2677726,-4.306373,-0.5703874,0.1995312,0.791218,28.35739,-26.48272,-30.14599,992.0173
3.286056518,-0.01836437,0.9787923,-4.489242,-0.5836,0.1917128,0.7857348,28.35739,-26.48272,-30.14599,992.0173
3.293435097,0.9707699,2.756341,-5.037848,-0.5623951,0.1780649,0.7953194,28.35739,-26.48272,-30.14599,992.0173
3.298354149,1.71262,4.830149,-5.34263,-0.5844857,0.181883,0.7893112,28.35739,-26.48272,-30.14599,992.0173
3.303273678,2.269009,5.481917,-5.464542,-0.5955306,0.1818515,0.7597833,28.35739,-26.48272,-30.14599,992.0173
3.308192730,3.629068,5.95593,-5.525499,-0.5896263,0.1717323,0.8079638,28.35739,-26.48272,-30.14599,992.0173
3.313112259,4.247277,7.37797,-5.708367,-0.5946646,0.1705251,0.7919438,28.35739,-26.48272,-30.14599,992.0173
3.318031311,4.43274,8.563003,-5.769324,-0.5799966,0.1846478,0.8000448,28.35739,-26.48272,-30.14599,992.0173
3.322950840,5.483695,10.1628,-6.135062,-0.5985478,0.1786307,0.8000041,28.35739,-26.48272,-30.14599,992.0173
3.327869892,6.225545,11.76259,-6.196018,-0.5810623,0.168917,0.83208,28.35729,-25.76431,-29.67657,992.0173
3.332789421,7.029217,13.89565,-6.317931,-0.5883529,0.1591204,0.8308547,28.35729,-25.76431,-29.67657,992.0173
3.337707996,8.018352,16.32497,-5.83028,-0.5862589,0.1487481,0.8387591,28.35729,-25.76431,-29.67657,992.0173
3.342627048,9.007485,18.75429,-4.976892,-0.5911818,0.1569627,0.8405195,28.35729,-25.76431,-29.67657,992.0173
3.350006580,10.61483,22.19088,-3.452985,-0.6020979,0.1610458,0.8776406,28.35729,-25.76431,-29.67657,992.019
3.354925632,9.872978,26.51625,-3.331072,-0.5694726,0.1948835,0.8833131,28.35729,-25.76431,-29.67657,992.019
3.359845161,13.14949,31.9674,-4.611154,-0.5333178,0.1905,0.9780406,28.35729,-25.76431,-29.67657,992.019
3.364764213,13.58223,40.44039,-5.403586,-0.5615581,0.1634626,0.9239967,28.35729,-25.76431,-29.67657,992.019
3.369683742,15.68414,47.19507,-5.586455,-0.5326119,0.1785161,0.9931877,28.35729,-25.76431,-29.67657,992.019
3.374602795,21.1862,58.74915,-6.98845,-0.4573637,0.102723,1.091131,28.35729,-25.76431,-29.67657,992.019
3.379521370,32.99399,80.25749,-10.64583,-0.3354969,0.1345933,1.321782,28.73665,-25.78237,-29.22883,992.019
3.384440899,43.25626,108.2243,-14.54703,-0.4029182,0.1198475,1.26991,28.73665,-25.78237,-29.22883,992.019
3.389359951,52.22029,131.2139,-16.19285,-0.3932004,0.1383582,1.223813,28.73665,-25.78237,-29.22883,992.019
3.394279480,62.6062,153.1963,-19.42353,-0.3202859,0.08400512,1.295758,28.73665,-25.78237,-29.22883,992.019
3.401658535,75.21767,192.7171,-22.10561,-0.3330613,0.1033142,1.352319,28.73665,-25.78237,-29.22883,992.019
3.406578064,80.53426,220.9209,-27.16498,-0.3493749,0.2987857,1.45437,28.73665,-25.78237,-29.22883,992.019
3.411497116,90.17832,245.6881,-34.60165,-0.4457575,0.4252409,1.427656,28.73665,-25.78237,-29.22883,992.019
3.416416645,89.00372,256.9459,-40.14867,-0.6125834,0.3653711,1.082376,28.73665,-25.78237,-29.22883,992.019
3.421335220,83.3162,254.8128,-43.80605,-0.6820387,0.3324123,0.9605055,28.73665,-25.78237,-29.22883,992.019
3.426254272,81.70885,251.317,-45.57378,-0.6317114,0.4689504,1.089738,30.28284,-26.29138,-25.34208,992.019
3.431173801,77.07229,251.4947,-52.70567,-0.6902099,0.6353314,1.110605,30.28284,-26.29138,-25.34208,992.019
3.436094761,70.21017,250.0134,-59.71564,-0.6836178,0.6132193,1.070513,30.28284,-26.29138,-25.34208,992.019
3.441012382,68.04644,246.6361,-65.14075,-0.7121313,0.6340032,1.118996,30.28284,-26.29138,-25.34208,992.019
3.445931435,58.4642,250.1319,-76.47862,-0.7022116,0.783783,1.225194,30.28284,-26.29138,-25.34208,992.019
3.450856209,46.10002,248.2359,-84.70772,-0.7895036,0.824859,1.074283,30.28284,-26.29138,-25.34208,992.019
3.455770016,39.85611,250.2504,-93.42447,-0.8004422,0.7388833,1.20611,30.28284,-26.29138,-25.34208,992.019
3.463148594,32.4376,253.3908,-98.36193,-0.9545208,0.4068118,1.103019,30.28284,-26.29138,-25.34208,992.019
3.468068123,31.63393,247.4064,-92.69299,-1.158888,0.2245632,1.101281,30.28284,-26.29138,-25.34208,992.019
3.472987175,38.31059,240.8295,-88.48701,-1.182396,0.2499482,1.062959,30.28284,-26.29138,-25.34208,992.0164
3.477906704,40.04157,234.2525,-88.9137,-1.592715,0.5243737,1.033369,35.5118,-27.67541,-16.29641,992.0164
3.482825756,38.49605,226.4313,-95.00933,-1.541407,0.7688145,0.9752386,35.5118,-27.67541,-16.29641,992.0164
3.487745285,35.46683,217.1288,-98.84958,-1.477376,1.664165,1.012645,35.5118,-27.67541,-16.29641,992.0164
3.492664337,2.949038,204.8637,-114.6982,-1.283796,1.49164,1.149243,35.5118,-27.67541,-16.29641,992.0164
3.497583866,-25.67403,187.9177,-118.4775,-1.281167,1.298636,1.506699,35.5118,-27.67541,-16.29641,992.0164
3.502502918,-51.3297,163.8616,-116.2221,-1.016542,1.119287,1.702701,35.5118,-27.67541,-16.29641,992.0164
3.507422447,-62.82839,152.6037,-107.7492,-0.6961749,0.7127208,1.402028,35.5118,-27.67541,-16.29641,992.0164
3.512341499,-52.07156,141.8199,-97.26472,-0.8489799,0.6611135,1.298694,35.5118,-27.67541,-16.29641,992.0164
3.517261028,-47.37317,117.4675,-79.7093,-0.5877702,0.4127674,1.453184,35.5118,-27.67541,-16.29641,992.0164
3.522180080,-36.92544,105.0839,-61.7272,-0.1631866,0.4077625,1.453423,35.5118,-27.67541,-16.29641,992.0164
3.527099609,-25.92132,99.98829,-50.69411,-0.00783551,0.5410378,1.312703,40.02208,-26.2108,-8.123798,992.0164
3.532018661,-19.24466,93.52986,-43.13553,0.01339591,0.5190767,1.167621,40.02208,-26.2108,-8.123798,992.0164
3.536937237,-13.37168,85.70865,-36.24747,-0.0803302,0.4166402,1.123835,40.02208,-26.2108,-8.123798,992.0164
3.544316769,-3.480334,68.22941,-27.95741,-0.1063914,0.3443722,1.115906,40.02208,-26.2108,-8.123798,992.0164
3.549235821,3.010859,55.31255,-24.66578,-0.04352358,0.3607944,1.102321,40.02208,-26.2108,-8.123798,992.0164
3.554155350,7.709247,41.62542,-23.32474,-0.009813815,0.3664704,1.101741,40.02208,-26.2108,-8.123798,992.0164
3.559074402,10.61483,28.23455,-23.38569,0.01413846,0.3411534,1.08471,40.02208,-26.2108,-8.123798,992.0164
3.563993931,12.40763,14.78442,-24.17813,0.03418294,0.3066307,1.062561,40.02208,-26.2108,-8.123798,992.0164
3.568912983,14.20044,1.393554,-25.58012,0.04934248,0.2802502,1.046053,40.02208,-26.2108,-8.123798,992.0164
3.573832512,15.8696,-12.11582,-27.16498,0.04345262,0.2522715,1.026754,40.02208,-26.2108,-8.123798,992.0164
3.578751087,17.10602,-25.62519,-28.07933,0.04042964,0.2447002,1.012941,41.84394,-22.73559,-4.561584,992.0164
3.583670139,17.97152,-38.3643,-29.11559,0.03785367,0.2179268,0.9829719,41.84394,-22.73559,-4.561584,992.0164
3.588589668,18.09516,-51.22191,-30.15184,0.03876694,0.20697,0.9695037,41.84394,-22.73559,-4.561584,992.0164
3.593508720,18.83701,-63.48699,-30.2128,0.03969566,0.19743,0.9585084,41.84394,-22.73559,-4.561584,992.0164
3.598428249,18.83701,-74.33005,-30.45662,0.0431271,0.1651395,0.9394802,41.84394,-22.73559,-4.561584,992.0164
3.605807304,20.13525,-90.15023,-29.66419,0.03429055,0.1410155,0.9213,41.84394,-22.73559,-4.561584,992.0164
3.610726833,21.30984,-99.45274,-28.20124,0.02116034,0.1209844,0.9168813,41.84394,-22.73559,-4.561584,992.0164
3.615645409,22.79354,-108.459,-26.18968,0.008854515,0.1292234,0.9138476,41.84394,-22.73559,-4.561584,992.0164
3.620564461,24.1536,-116.6357,-23.75143,-0.001827812,0.1212638,0.9170789,41.84394,-22.73559,-4.561584,992.0164
3.625483990,25.51366,-125.1087,-20.45979,-0.04190702,0.1092845,0.9126539,42.97112,-23.47838,-4.581635,992.0164
3.630403042,26.13187,-133.0484,-16.00998,-0.05940371,0.1021654,0.9198523,42.97112,-23.47838,-4.581635,992.0164
3.635322571,26.19369,-140.8696,-10.52391,-0.086762,0.09848747,0.92093,42.97112,-23.47838,-4.581635,992.0146
3.640241623,26.44098,-147.5058,-5.037848,-0.09652612,0.09788433,0.9224473,42.97112,-23.47838,-4.581635,992.0146
3.645161152,26.31734,-154.2013,0.6920429,-0.1146231,0.1097791,0.9297748,42.97112,-23.47838,-4.581635,992.0146
3.650080204,25.82277,-160.1264,6.726716,-0.1356205,0.1080812,0.9323202,42.97112,-23.47838,-4.581635,992.0146
3.654999733,25.26638,-164.8666,12.57852,-0.144421,0.1017286,0.9287901,42.97112,-23.47838,-4.581635,992.0146
3.659918785,24.58635,-169.0142,19.03989,-0.1816302,0.102918,0.9257349,42.97112,-23.47838,-4.581635,992.0146
3.664838314,24.46271,-173.3395,24.40404,-0.2161157,0.1141816,0.9069576,42.97112,-23.47838,-4.581635,992.0146
3.669757366,24.27725,-177.0724,29.58533,-0.2351182,0.1080874,0.9108025,42.97112,-23.47838,-4.581635,992.0146
3.674676895,24.21543,-180.3312,35.49809,-0.2596367,0.1046175,0.9021528,43.59544,-22.24182,-8.824286,992.0146
3.679595947,24.27725,-183.4123,41.16702,-0.303173,0.1027976,0.9005097,43.59544,-22.24182,-8.824286,992.0146
3.684514999,24.77181,-186.5527,46.65309,-0.3571328,0.1132336,0.8906054,43.59544,-22.24182,-8.824286,992.0146
3.691894054,25.63731,-191.6483,53.78497,-0.4355971,0.145246,0.888877,43.59544,-22.24182,-8.824286,992.0146
3.696813106,25.94641,-195.6182,58.23478,-0.4713247,0.173905,0.9041696,43.59544,-22.24182,-8.824286,992.0146
3.701732635,25.26638,-199.4103,62.07503,-0.5114744,0.1770085,0.9016854,43.59544,-22.24182,-8.824286,992.0146
3.706651688,24.33907,-205.4539,67.74397,-0.5758378,0.07383542,0.8590918,43.59544,-22.24182,-8.824286,992.0146
3.711571217,27.49193,-205.2169,71.09657,-0.4708634,0.1416787,0.9322646,43.59544,-22.24182,-8.824286,992.0146
3.716490269,27.55375,-208.1795,74.20534,-0.5713203,0.2197308,0.9098582,43.59544,-22.24182,-8.824286,992.0129
3.721409321,27.92468,-211.0828,77.43602,-0.6103113,0.1743008,0.9470789,43.59544,-22.24182,-8.824286,992.0129
3.726328850,27.49193,-213.2751,81.03244,-0.6219544,0.1590666,0.9476571,41.34071,-22.02349,-14.83074,992.0129
3.731247902,27.24465,-215.1712,84.9946,-0.6365016,0.1784645,0.9726751,41.34071,-22.02349,-14.83074,992.0129
3.736166954,27.80104,-217.245,88.53006,-0.6451983,0.1661268,0.9762353,41.34071,-22.02349,-14.83074,992.0129
3.743546009,28.54289,-219.2596,94.25996,-0.6595203,0.1470005,1.000987,41.34071,-22.02349,-14.83074,992.0129
3.748465538,29.90295,-220.3261,98.28307,-0.6833889,0.1523878,1.014465,41.34071,-22.02349,-14.83074,992.0129
3.753384590,30.39751,-220.1483,101.5747,-0.6843084,0.1869833,1.041801,41.34071,-22.02349,-14.83074,992.0129
3.758303642,30.21205,-220.3261,104.1349,-0.6819618,0.1987669,1.038761,41.34071,-22.02349,-14.83074,992.0129
3.763223171,28.79017,-219.4373,106.2683,-0.6817747,0.1979258,1.057668,41.34071,-22.02349,-14.83074,992.0129
3.768142223,28.11014,-217.719,107.3046,-0.6773031,0.2330302,1.086432,41.34071,-22.02349,-14.83074,992.0129
3.773061752,27.73922,-214.7564,107.1827,-0.7194007,0.2438149,1.089551,37.30018,-24.65976,-20.99298,992.0129
3.777980804,27.18283,-212.9789,107.7923,-0.7713351,0.1938854,1.100515,37.30018,-24.65976,-20.99298,992.0129
3.782900333,28.04832,-210.6088,109.1333,-0.8206068,0.2216519,1.130942,37.30018,-24.65976,-20.99298,992.0129
3.787818909,30.9539,-209.1275,110.4743,-0.8898498,0.2158138,1.149288,37.30018,-24.65976,-20.99298,992.0129
3.792738438,33.67402,-209.6015,112.4249,-0.9567117,0.2110633,1.110842,37.30018,-24.65976,-20.99298,992.0129
3.797657490,36.33232,-211.2606,115.7775,-0.9834554,0.2842974,1.172159,37.30018,-24.65976,-20.99298,992.0112
3.805036545,36.64142,-211.2606,120.8979,-1.066295,0.3682944,1.205149,37.30018,-24.65976,-20.99298,992.0112
3.809956074,34.35405,-207.824,123.8238,-1.179128,0.451346,1.170381,37.30018,-24.65976,-20.99298,992.0112
3.814875126,29.4702,-207.9425,127.9078,-1.280725,0.5118808,1.171214,37.30018,-24.65976,-20.99298,992.0112
3.819794178,22.23716,-208.298,131.87,-1.372522,0.5946261,1.136748,37.30018,-24.65976,-20.99298,992.0112
3.824713230,14.26226,-208.1203,134.1863,-1.432177,0.6581782,1.126651,31.02505,-26.28283,-25.78741,992.0112
3.829632759,7.152859,-207.35,136.1369,-1.518634,0.655724,1.086497,31.02505,-26.28283,-25.78741,992.0112
3.834551811,1.71262,-206.4612,138.1485,-1.598166,0.5996819,1.072244,31.02505,-26.28283,-25.78741,992.0112
3.839471340,-1.502066,-204.9207,140.4039,-1.702446,0.5333575,0.9704675,31.02505,-26.28283,-25.78741,992.0095
3.844390392,-2.182096,-204.2689,142.8421,-1.761755,0.4472498,0.9045884,31.02505,-26.28283,-25.78741,992.0095
3.849314213,0.908949,-202.1951,144.6098,-1.801483,0.3728357,0.796682,31.02505,-26.28283,-25.78741,992.0095
3.854228973,6.53465,-198.2845,144.9756,-1.840996,0.3003962,0.6616472,31.02505,-26.28283,-25.78741,992.0095
3.859148025,14.32408,-193.4258,144.0003,-1.874327,0.2269057,0.5075921,31.02505,-26.28283,-25.78741,992.0095
3.864067554,23.53539,-186.4934,140.7696,-1.881967,0.2061639,0.3618149,31.02505,-26.28283,-25.78741,992.0095
3.868986607,33.05581,-177.3094,135.7102,-1.853969,0.1111476,0.2143348,31.02505,-26.28283,-25.78741,992.0095
3.876365662,47.83101,-159.1784,125.8353,-1.835553,-0.04800602,-0.002612262,23.26144,-27.49311,-29.74192,992.0078
3.881284714,57.72235,-144.484,119.4349,-1.844146,-0.1719486,-0.1075068,23.26144,-27.49311,-29.74192,992.0078
3.886203766,67.36641,-128.1898,112.7907,-1.900865,-0.297388,-0.233418,23.26144,-27.49311,-29.74192,992.0078
3.891123295,75.21767,-111.7178,106.3903,-1.968292,-0.3854142,-0.3308517,23.26144,-27.49311,-29.74192,992.0078
3.896042347,81.09064,-94.83112,98.16116,-2.072687,-0.41827,-0.4747667,23.26144,-27.49311,-29.74192,992.0078
3.900961876,83.93441,-79.42568,87.12807,-2.184742,-0.3584763,-0.5952557,23.26144,-27.49311,-29.74192,992.0078
3.905880928,83.3162,-64.67203,71.88899,-2.268262,-0.2630917,-0.7274618,23.26144,-27.49311,-29.74192,992.0078
3.910800457,76.88683,-51.28116,52.56585,-2.206488,-0.1249465,-0.6783848,23.26144,-27.49311,-29.74192,992.0078
3.915719509,63.84262,-34.15743,28.3662,-2.181054,0.06808321,-0.7122183,23.26144,-27.49311,-29.74192,992.0078
3.920639038,45.41999,-18.92976,1.850212,-2.127163,0.2260148,-0.707597,15.60831,-30.27042,-30.74038,992.0043
3.925558090,23.10265,-5.301882,-25.45821,-2.084989,0.3515188,-0.6699318,15.60831,-30.27042,-30.74038,992.0043
3.930477619,-0.2656479,8.563003,-50.93794,-2.025519,0.3331877,-0.6006051,15.60831,-30.27042,-30.74038,992.0043
3.935396671,-19.61559,20.41333,-71.72403,-1.960098,0.2684623,-0.551265,15.60831,-30.27042,-30.74038,992.0043
3.942775249,-37.48182,36.35202,-91.291,-1.815274,0.1433837,-0.4710098,15.60831,-30.27042,-30.74038,992.0043
3.947694778,-48.85687,41.92168,-92.99777,-1.230033,0.318721,0.7805463,15.60831,-30.27042,-30.74038,992.0043
3.952613831,-105.1139,115.8085,-113.9058,-1.847904,0.2462516,0.165208,15.60831,-30.27042,-30.74038,992.0043
3.957533360,-124.8966,126.1775,-105.3109,-0.3004251,0.4242938,-1.206136,15.60831,-30.27042,-30.74038,992.007
3.962452412,-99.05543,107.7503,-112.7476,0.05276531,0.5656021,-0.2004186,15.60831,-30.27042,-30.74038,992.007
3.967371941,-90.46233,148.9301,-127.9867,-1.223668,0.133696,0.8706976,15.60831,-30.27042,-30.74038,992.007
3.972290993,-70.06143,123.7482,-91.10813,-0.01634134,-0.06443924,1.682759,12.68355,-32.05118,-31.63292,992.007
3.977210522,-89.28773,129.7326,-64.89693,0.4020172,0.6502229,2.341688,12.68355,-32.05118,-31.63292,992.007
3.982129097,-111.8523,151.1817,-51.36463,-0.2621361,0.8366234,1.295135,12.68355,-32.05118,-31.63292,992.007
3.987048149,-103.8156,158.5882,-43.13553,0.4375123,0.575262,1.207697,12.68355,-32.05118,-31.63292,992.007
3.991967678,-94.35704,202.2566,-39.11242,0.9453035,0.07784976,1.470163,12.68355,-32.05118,-31.63292,992.007
3.996886730,-90.52415,242.3107,-27.53072,0.5218465,-0.3942953,1.192427,12.68355,-32.05118,-31.63292,992.007
4.001806259,-65.85761,257.6569,-13.38886,-0.4202093,-1.031283,0.8500574,12.68355,-32.05118,-31.63292,992.0051
4.009185314,-29.69239,243.9698,6.787673,-2.159436,-0.5202191,1.069105,12.68355,-32.05118,-31.63292,992.0051
4.014104843,-13.4335,216.24,-5.037848,-2.649085,-0.2873605,0.8519024,12.68355,-32.05118,-31.63292,992.0051
4.019023895,5.85462,184.3034,-23.87334,-2.455412,-0.4576754,0.9487566,18.14168,-29.51627,-31.98936,992.0051
4.023942470,20.62981,157.2254,-41.06302,-2.184629,-0.5961236,1.047456,18.14168,-29.51627,-31.98936,992.0051
4.028861999,36.76506,135.5985,-46.85387,-1.905205,-0.4147168,0.8179228,18.14168,-29.51627,-31.98936,992.0051
4.033781051,48.88196,114.3864,-46.85387,-1.248418,0.1075464,0.8749177,18.14168,-29.51627,-31.98936,992.0051
4.038700580,51.04569,104.0767,-42.22119,-0.8405549,0.6212842,0.9302835,18.14168,-29.51627,-31.98936,992.0095
4.043619632,32.37578,107.217,-31.67575,-0.6463004,1.048939,0.8452938,18.14168,-29.51627,-31.98936,992.0095
4.048539161,8.203815,110.4758,-21.67892,-0.5225863,1.199039,0.8325828,18.14168,-29.51627,-31.98936,992.0095
4.053458214,-12.32072,109.4686,-13.51077,-0.5962687,1.249627,0.8309253,18.14168,-29.51627,-31.98936,992.0095
4.058377743,-30.55788,105.9727,-12.84025,-0.6766166,0.9980485,0.86576,18.14168,-29.51627,-31.98936,992.0095
4.063296795,-39.83102,106.3282,-20.70362,-0.8447915,0.5581794,0.7564156,18.14168,-29.51627,-31.98936,992.0095
4.070675373,-37.66729,93.41136,-30.57854,-1.025699,0.05607107,0.7087853,24.39132,-27.88415,-29.3038,992.0095
4.075594902,-29.136,81.32402,-31.55384,-1.059119,-0.06298958,0.6697981,24.39132,-27.88415,-29.3038,992.0095
4.080513954,-27.6523,71.60675,-27.16498,-0.9830257,0.2172402,0.769439,24.39132,-27.88415,-29.3038,992.0078
4.085433483,-25.79768,63.43003,-22.16657,-0.9775229,0.5240466,0.61512,24.39132,-27.88415,-29.3038,992.0078
4.090352535,-23.5103,55.2533,-19.11875,-0.8539941,0.6349849,0.6098946,24.39132,-27.88415,-29.3038,992.0078
4.095272064,-21.28475,50.92793,-21.06935,-0.698591,0.4322573,0.6744639,24.39132,-27.88415,-29.3038,992.0078
4.100192547,-17.01911,47.01732,-21.80083,-0.6482044,0.1073246,0.729665,24.39132,-27.88415,-29.3038,992.0078
4.105110645,-12.62983,44.41025,-18.75302,-0.6810213,-0.064443,0.8225051,24.39132,-27.88415,-29.3038,992.0078
4.110029697,-10.34245,43.28447,-15.46137,-0.690181,-0.01708892,0.7638922,24.39132,-27.88415,-29.3038,992.0078
4.114949226,-6.818662,40.55889,-12.16973,-0.765863,0.1598513,0.7337714,24.39132,-27.88415,-29.3038,992.0078
4.119868278,-5.891349,36.88529,-9.853395,-0.765228,0.3041856,0.7359662,26.57947,-26.84522,-27.98841,992.006
4.124787807,-5.520424,33.38944,-9.975308,-0.7476671,0.3545557,0.7112182,26.57947,-26.84522,-27.98841,992.006
4.129706859,-5.334961,31.01937,-10.76774,-0.7525483,0.2889391,0.7227494,26.57947,-26.84522,-27.98841,992.006
4.134626388,-5.27314,28.2938,-11.3773,-0.6516379,0.2389258,0.758675,26.57947,-26.84522,-27.98841,992.006
4.142004967,-5.087677,27.34577,-11.01157,-0.5598183,0.1696377,0.8037678,26.57947,-26.84522,-27.98841,992.006
4.146924019,-4.840394,27.52353,-10.03626,-0.6093748,0.2403605,0.7802232,26.57947,-26.84522,-27.98841,992.006
4.151843548,-5.087677,26.16074,-9.914351,-0.6558768,0.2771266,0.7482817,26.57947,-26.84522,-27.98841,992.006
4.156762600,-4.654931,24.5017,-9.670527,-0.6520006,0.2410682,0.7223315,26.57947,-26.84522,-27.98841,992.006
4.161682129,-4.345827,24.26469,-9.365745,-0.58433,0.1757982,0.8017387,26.57947,-26.84522,-27.98841,992.0026
4.166601181,-3.109409,22.84265,-8.939051,-0.621281,0.1856319,0.7800227,28.76348,-26.57306,-27.5274,992.0026
4.171520710,-3.294872,22.36864,-8.390445,-0.6613182,0.1841581,0.7356349,28.76348,-26.57306,-27.5274,992.0026
4.176439762,-1.378424,20.65034,-7.4761,-0.6470693,0.1894848,0.7963805,28.76348,-26.57306,-27.5274,992.0026
4.181359291,-1.563887,20.76884,-6.561756,-0.595578,0.1506228,0.7864579,28.76348,-26.57306,-27.5274,992.0026
4.186278343,-0.6983942,19.76156,-5.34263,-0.6373006,0.2156127,0.7602375,28.76348,-26.57306,-27.5274,992.0026
4.191196918,-0.5129315,19.46531,-4.550198,-0.5844921,0.1997361,0.7995944,28.76348,-26.57306,-27.5274,992.0026
4.198576450,0.5998445,18.69503,-3.513941,-0.6402941,0.221968,0.7580382,28.76348,-26.57306,-27.5274,992.0026
4.203495502,0.4143819,18.10252,-1.868121,-0.6372748,0.2035089,0.7554793,28.76348,-26.57306,-27.5274,992.0009
4.208415031,1.774441,16.38422,-1.624296,-0.6642649,0.218872,0.7557079,28.76348,-26.57306,-27.5274,992.0009
4.213334083,2.021725,16.26572,-0.5880393,-0.6195289,0.1995421,0.7673449,28.76348,-26.57306,-27.5274,992.0009
4.218253612,2.701755,15.6732,0.7529992,-0.6169772,0.1930918,0.7744002,29.51581,-25.87374,-26.67328,992.0009
4.223172664,3.196322,15.5547,1.911169,-0.6843202,0.1907105,0.6874803,29.51581,-25.87374,-26.67328,992.0009
4.228091240,3.814531,14.25116,2.520732,-0.6490335,0.1913896,0.7459621,29.51581,-25.87374,-26.67328,992.0009
4.233010769,4.680023,13.7179,4.166552,-0.6361991,0.1869365,0.7554247,29.51581,-25.87374,-26.67328,992.0009
4.237929821,4.989128,13.24388,5.385677,-0.6184438,0.2176466,0.7387844,29.51581,-25.87374,-26.67328,992.0009
4.242849350,3.690889,14.19191,6.970541,-0.634905,0.2349956,0.71617,29.51581,-25.87374,-26.67328,991.9992
4.247768402,5.360053,12.59211,5.324721,-0.5963398,0.3145561,0.7572472,29.51581,-25.87374,-26.67328,991.9992
4.255147934,4.494561,12.35511,3.983683,-0.6042274,0.2822999,0.73103,29.51581,-25.87374,-26.67328,991.9992
4.260066986,4.185456,11.64409,3.252207,-0.6148372,0.259736,0.7328213,29.51581,-25.87374,-26.67328,991.9992
4.264986515,4.494561,10.99232,3.191251,-0.6225294,0.2434988,0.7367336,30.26082,-26.23185,-27.12984,991.9992
4.269905090,4.556382,11.28858,3.435076,-0.6255367,0.2556668,0.7366629,30.26082,-26.23185,-27.12984,991.9992
4.274824142,4.247277,10.57756,3.191251,-0.604868,0.2421051,0.7413993,30.26082,-26.23185,-27.12984,991.9992
4.279743671,3.690889,12.35511,4.53229,-0.6451291,0.2246669,0.6639705,30.26082,-26.23185,-27.12984,991.9992
4.284662723,4.185456,10.04429,3.86177,-0.600441,0.2551148,0.7519763,30.26082,-26.23185,-27.12984,992.0035
4.289582252,5.050949,10.34055,3.922727,-0.619455,0.2177013,0.7353957,30.26082,-26.23185,-27.12984,992.0035
4.294501304,4.741844,10.93307,4.776114,-0.6096568,0.2230607,0.7403424,30.26082,-26.23185,-27.12984,992.0035
4.299424648,5.298232,11.94035,5.385677,-0.6215712,0.2387242,0.7317173,30.26082,-26.23185,-27.12984,992.0035
4.304339886,4.061814,13.06613,6.604804,-0.6336828,0.209441,0.6750413,30.26082,-26.23185,-27.12984,992.0035
4.309259415,5.236411,10.75531,5.995241,-0.6127281,0.2541563,0.745249,30.26082,-26.23185,-27.12984,992.0035
4.314178467,5.11277,11.76259,5.873328,-0.6106114,0.2263821,0.7448266,30.26082,-26.23185,-27.12984,992.0035
4.321557045,5.236411,12.17735,6.117153,-0.601243,0.2566747,0.7204732,30.64019,-26.2499,-26.68209,992.0035
4.326476574,3.443605,14.01415,7.458191,-0.6138496,0.2471899,0.7260989,30.64019,-26.2499,-26.68209,992.0035
4.331395626,5.607337,10.99232,5.141852,-0.6113415,0.3232536,0.7285171,30.64019,-26.2499,-26.68209,992.0035
4.336315155,4.556382,11.9996,4.53229,-0.5821777,0.2640951,0.7239534,30.64019,-26.2499,-26.68209,992.0035
4.341234207,3.75271,12.41436,4.288465,-0.61652,0.3078502,0.689223,30.64019,-26.2499,-26.68209,992.0035
4.346153736,3.876352,12.2366,3.252207,-0.6213811,0.2778762,0.724717,30.64019,-26.2499,-26.68209,992.0035
4.351072788,2.825397,11.46633,2.581688,-0.6185336,0.2616752,0.7057238,30.64019,-26.2499,-26.68209,992.0035
4.355992317,3.010859,11.52559,2.581688,-0.6091942,0.2708297,0.7161369,30.64019,-26.2499,-26.68209,992.0035
4.360911369,2.207188,11.05157,2.033081,-0.6127009,0.274816,0.7099816,30.64019,-26.2499,-26.68209,992.0035
4.365830898,2.454471,11.11082,1.606387,-0.6020049,0.2803384,0.7066721,31.02505,-26.28283,-25.78741,992.0035
4.370749950,1.6508,11.28858,1.057781,-0.609059,0.3014078,0.6981803,31.02505,-26.28283,-25.78741,992.0035
4.375669479,1.279874,10.93307,0.1434363,-0.5981683,0.2930558,0.7065628,31.02505,-26.28283,-25.78741,992.0035
4.380588531,0.5998445,11.22933,-0.8318644,-0.5965828,0.2803055,0.7109964,31.02505,-26.28283,-25.78741,992.0035
4.385508060,0.5380236,11.34783,-1.380471,-0.60978,0.2830652,0.7136208,31.02505,-26.28283,-25.78741,992.0035
4.390426636,0.5998445,11.28858,-1.868121,-0.6099131,0.2842849,0.7005516,31.02505,-26.28283,-25.78741,992.0035
4.395345688,0.4762028,11.40708,-2.782466,-0.6196219,0.2855045,0.7089245,31.02505,-26.28283,-25.78741,992.0035
4.400266647,0.1670983,10.93307,-3.270116,-0.6123115,0.2817622,0.7038891,31.02505,-26.28283,-25.78741,992.0035
4.407644272,-0.203827,10.99232,-4.611154,-0.6094739,0.2940286,0.7013459,31.02505,-26.28283,-25.78741,991.9992
4.412563801,-1.069319,10.99232,-5.586455,-0.5933297,0.302361,0.7068214,31.02505,-26.28283,-25.78741,991.9992
4.417482853,-1.687528,11.28858,-6.561756,-0.5972035,0.3012872,0.7102176,30.65389,-25.9279,-25.33004,991.9992
4.422402382,-2.243917,11.70334,-7.841838,-0.6090037,0.3032305,0.7050358,30.65389,-25.9279,-25.33004,991.9992
4.427321434,-2.862125,11.70334,-8.817139,-0.5758379,0.2781698,0.7306646,30.65389,-25.9279,-25.33004,991.9992
4.432240009,-3.603976,17.62851,-7.658969,-0.7457389,0.3526329,0.5547985,30.65389,-25.9279,-25.33004,991.9992
4.437159538,-4.778573,10.04429,-10.76774,-0.5890576,0.2640966,0.7206112,30.65389,-25.9279,-25.33004,991.9992
4.442078590,-5.087677,11.9996,-10.88965,-0.6365361,0.2516905,0.7094357,30.65389,-25.9279,-25.33004,991.9992
4.446998119,-5.396782,10.99232,-11.31635,-0.6178883,0.2363067,0.7063618,30.65389,-25.9279,-25.33004,991.9992
4.451917171,-5.396782,11.88109,-11.49922,-0.6243067,0.2479381,0.7072729,30.65389,-25.9279,-25.33004,991.9992
4.456836700,-5.211319,11.40708,-11.31635,-0.6286052,0.2303421,0.7072296,30.65389,-25.9279,-25.33004,991.9992
4.461755752,-4.716752,11.05157,-11.07252,-0.6567107,0.2401738,0.6898106,30.65389,-25.9279,-25.33004,991.9992
4.469134331,-4.716752,10.69606,-10.88965,-0.6414576,0.2521881,0.7065789,31.03055,-26.29771,-25.34047,991.9992
4.474053860,-4.222185,11.28858,-10.76774,-0.6356803,0.2635063,0.7039811,31.03055,-26.29771,-25.34047,991.9992
4.478972912,-4.407648,10.75531,-11.49922,-0.6150678,0.2650001,0.712114,31.03055,-26.29771,-25.34047,991.9992
4.483892441,-4.654931,10.63681,-11.92591,-0.6313237,0.2699006,0.7031794,31.03055,-26.29771,-25.34047,991.9992
4.488811493,-5.087677,10.81456,-12.3526,-0.6481497,0.2759166,0.6865166,31.03055,-26.29771,-25.34047,991.9992
4.493731022,-5.458603,9.925791,-12.96217,-0.6272802,0.24654,0.7023972,31.03055,-26.29771,-25.34047,991.9992
4.498650074,-6.014991,9.688784,-13.08408,-0.6733069,0.2327303,0.6887372,31.03055,-26.29771,-25.34047,991.9992
4.503569603,-6.509558,9.274022,-13.14503,-0.647649,0.2166125,0.7020903,31.03055,-26.29771,-25.34047,991.9992
4.508488655,-6.014991,9.629532,-12.59643,-0.6371917,0.2033275,0.7132313,31.03055,-26.29771,-25.34047,991.9992
4.513408184,-5.149498,9.57028,-12.16973,-0.654866,0.2187293,0.7158123,32.08982,-26.30669,-25.33818,991.9992
4.518327236,-3.974901,9.748035,-11.62113,-0.654846,0.2018148,0.7075014,32.08982,-26.30669,-25.33818,991.9992
4.523246765,-3.294872,9.925791,-10.88965,-0.6544799,0.2112162,0.7005167,32.08982,-26.30669,-25.33818,991.9992
4.528165817,-3.109409,9.096268,-10.21913,-0.6711457,0.2270508,0.7065021,32.08982,-26.30669,-25.33818,992.0009
4.535544395,-2.243917,8.622254,-9.000008,-0.6567528,0.2079703,0.716454,32.08982,-26.30669,-25.33818,992.0009
4.540463924,-1.192961,8.325996,-8.329488,-0.6572213,0.205998,0.7173656,32.08982,-26.30669,-25.33818,992.0009
4.545382976,-0.8838569,8.266745,-7.4761,-0.6629416,0.2225148,0.6922088,32.08982,-26.30669,-25.33818,992.0009
4.550302505,0.1670983,7.733479,-6.98845,-0.6534922,0.2203681,0.707114,32.08982,-26.30669,-25.33818,992.0009
4.555221558,0.2907401,7.674228,-6.561756,-0.645883,0.2338713,0.6929185,32.08982,-26.30669,-25.33818,992.0009
4.560141086,1.032591,7.200215,-6.805581,-0.6436229,0.2472895,0.7326584,32.08982,-26.30669,-25.33818,992.0009
4.565060139,1.403516,7.496473,-6.805581,-0.6433529,0.2371058,0.7036832,32.09173,-25.9528,-24.94385,992.0009
4.569979668,1.6508,6.66695,-6.927494,-0.6652154,0.2583054,0.6812366,32.09173,-25.9528,-24.94385,992.0009
4.574898720,1.6508,7.081711,-7.293231,-0.6479334,0.2615185,0.7001337,32.09173,-25.9528,-24.94385,992.0009
4.579818249,1.774441,6.903956,-7.902794,-0.6310405,0.2544098,0.7230727,32.09173,-25.9528,-24.94385,992.0009
4.584737301,1.218053,6.548447,-8.329488,-0.6445728,0.2602232,0.6927815,32.09173,-25.9528,-24.94385,992.0009
4.589656830,1.094412,6.548447,-9.060964,-0.6574078,0.2622664,0.6817852,32.09173,-25.9528,-24.94385,992.0009
4.594575405,0.908949,5.244911,-9.182877,-0.6470739,0.2555083,0.7348924,32.09173,-25.9528,-24.94385,992.0009
4.599494457,0.4762028,5.837427,-9.853395,-0.6733364,0.2188037,0.6771236,32.09173,-25.9528,-24.94385,992.0009
4.604413986,0.7853072,5.541169,-9.426702,-0.6581917,0.2238151,0.7291121,32.09173,-25.9528,-24.94385,992.0009
4.609333038,1.836262,6.370692,-9.365745,-0.6620948,0.2146003,0.724479,32.09173,-25.9528,-24.94385,992.0009
4.614252567,2.701755,7.437222,-9.365745,-0.6549547,0.1981875,0.7447721,32.45998,-25.22268,-24.92057,992.0009
4.621631622,4.680023,10.04429,-8.268532,-0.6698681,0.1994831,0.7206593,32.45998,-25.22268,-24.92057,992.0009
4.626551151,5.298232,11.70334,-8.329488,-0.6519298,0.231771,0.7239749,32.45998,-25.22268,-24.92057,992.0009
4.631469726,6.720113,13.42164,-8.695226,-0.6290469,0.1950918,0.7920426,32.45998,-25.22268,-24.92057,992.0009
4.636388779,10.80029,18.10252,-9.182877,-0.5757434,0.2115138,0.8518524,32.45998,-25.22268,-24.92057,992.0009
4.641308308,14.20044,27.81979,-11.25539,-0.6373442,0.2330328,0.7156417,32.45998,-25.22268,-24.92057,992.0009
4.646227360,14.32408,34.04121,-12.53547,-0.5571817,0.2961275,0.9520055,32.45998,-25.22268,-24.92057,992.0009
4.651146889,15.80778,43.69923,-15.76616,-0.650356,0.2436342,0.7423072,32.45998,-25.22268,-24.92057,992.0009
4.656065941,15.62232,47.13582,-16.49763,-0.628082,0.1912466,0.7375315,32.45998,-25.22268,-24.92057,992.0009
4.660985470,14.94229,49.38738,-15.7052,-0.6190982,0.2353615,0.834037,32.83384,-25.22585,-24.91976,992.0009
4.665904522,18.71337,50.51316,-17.04624,-0.6317225,0.2712133,0.8148977,32.83384,-25.22585,-24.91976,992.0009
4.670824051,20.62981,56.73459,-18.50919,-0.5923185,0.2228346,0.8644899,32.83384,-25.22585,-24.91976,992.0009
4.678202629,21.43349,76.58389,-20.09405,-0.5355562,0.1890949,0.9479108,32.83384,-25.22585,-24.91976,992.0009
4.683121681,23.28811,88.67123,-20.88649,-0.5583193,0.2974108,0.9870145,32.83384,-25.22585,-24.91976,992.0009
4.688041210,29.65566,101.6473,-24.97056,-0.5320354,0.4016012,1.139199,32.83384,-25.22585,-24.91976,992.0009
4.692960262,37.13599,115.1567,-30.33471,-0.4968568,0.4015231,1.186004,32.83384,-25.22585,-24.91976,992.0009
4.697879791,32.4376,129.9696,-35.69886,-0.5611945,0.4728272,1.202413,32.83384,-25.22585,-24.91976,992.0009
4.702798843,39.48518,140.1609,-42.89171,-0.5714439,0.4635549,1.249783,32.83384,-25.22585,-24.91976,992.0009
4.707718372,38.80516,153.7888,-49.90168,-0.5808221,0.4930491,1.259059,32.83384,-25.22585,-24.91976,992.0009
4.712637424,43.50354,166.6464,-56.78974,-0.5453504,0.4702505,1.373109,33.61929,-25.33424,-21.85342,992.0009
4.717556953,42.94715,178.9115,-61.42242,-0.6100541,0.4549827,1.298378,33.61929,-25.33424,-21.85342,992.0009
4.722476005,46.22366,190.1693,-66.29892,-0.6532877,0.4834416,1.346742,33.61929,-25.33424,-21.85342,992.0009
4.727395534,52.46757,203.2639,-71.54116,-0.6452748,0.465793,1.355336,33.61929,-25.33424,-21.85342,992.0009
4.732314587,55.06405,212.9219,-75.8081,-0.6823789,0.5284559,1.299385,33.61929,-25.33424,-21.85342,991.9965
4.737234116,57.90781,220.8616,-79.95313,-0.7689739,0.5373575,1.251828,33.61929,-25.33424,-21.85342,991.9965
4.744612694,57.22778,228.7421,-89.70614,-0.8743963,0.5485303,1.282183,33.61929,-25.33424,-21.85342,991.9965
4.749531746,56.17683,237.3929,-91.41291,-0.8565837,0.4383565,1.235778,33.61929,-25.33424,-21.85342,991.9965
4.754451275,55.8059,238.9926,-92.93682,-0.9974777,0.2067355,1.192122,33.61929,-25.33424,-21.85342,991.9965
4.759370327,62.11163,234.9043,-88.42606,-1.145826,0.1469091,1.190935,36.99088,-25.54933,-16.22763,991.9965
4.764289856,68.97375,228.2088,-85.80493,-1.498502,0.2474974,1.199483,36.99088,-25.54933,-16.22763,991.9965
4.769208908,81.33793,215.5882,-86.71928,-1.569281,0.3998685,1.155424,36.99088,-25.54933,-16.22763,991.9948
4.774128437,93.45483,205.634,-87.81649,-1.481127,0.4727075,1.110425,36.99088,-25.54933,-16.22763,991.9948
4.779047489,103.0989,191.7691,-79.83121,-1.139274,0.9005452,1.267483,36.99088,-25.54933,-16.22763,991.9948
4.783967018,63.47169,169.0164,-75.01567,-1.554834,1.971149,1.588771,36.99088,-25.54933,-16.22763,991.9948
4.788886070,8.203815,141.5829,-82.39138,-0.8747172,1.813877,1.974829,36.99088,-25.54933,-16.22763,991.9948
4.793804645,-38.78006,144.3678,-84.34198,-0.9114171,1.927161,1.534984,36.99088,-25.54933,-16.22763,991.9948
4.798724174,-72.96701,130.9176,-86.90215,-1.067637,1.430127,1.514503,36.99088,-25.54933,-16.22763,991.9948
4.803643227,-92.44059,107.2762,-76.96627,-0.6359151,0.5579307,1.621858,36.99088,-25.54933,-16.22763,991.9948
4.808562756,-88.6077,98.3885,-63.49493,-0.2673645,0.3046391,1.441261,40.37678,-23.70857,-8.046205,991.9948
4.815941811,-60.10827,88.37497,-47.46343,-0.04891453,0.2123441,1.213163,40.37678,-23.70857,-8.046205,991.9948
4.820861340,-41.80929,81.38328,-38.62477,-0.0661313,0.2355037,1.166465,40.37678,-23.70857,-8.046205,991.9948
4.825780392,-31.05245,73.79906,-32.89487,-0.1353656,0.3525604,1.159618,40.37678,-23.70857,-8.046205,991.9948
4.830699921,-27.3432,64.97057,-30.02993,-0.1411813,0.3827612,1.132959,40.37678,-23.70857,-8.046205,991.9948
4.835618496,-26.35406,54.24602,-28.74985,-0.09795083,0.326846,1.118187,40.37678,-23.70857,-8.046205,991.9948
4.840537548,-24.25215,42.21793,-28.87176,-0.07937235,0.262895,1.078113,40.37678,-23.70857,-8.046205,991.9948
4.845457077,-20.97565,29.41958,-30.88332,-0.06997689,0.2169737,1.060541,40.37678,-23.70857,-8.046205,991.9948
4.850376129,-17.01911,16.56198,-33.5654,-0.03184371,0.1628574,1.025476,40.37678,-23.70857,-8.046205,991.9931
4.855295658,-12.2589,4.237633,-36.61321,-0.0007449007,0.1288083,0.9833446,40.37678,-23.70857,-8.046205,991.9931
4.860214710,-7.375051,-7.671948,-40.3925,0.02314097,0.1069939,0.9615712,42.95991,-22.0118,-4.536688,991.9931
4.865136623,-2.923946,-19.22602,-43.92796,0.03261771,0.1129701,0.933524,42.95991,-22.0118,-4.536688,991.9931
4.870053291,0.2907401,-30.18757,-47.28056,0.04217074,0.1303722,0.9204085,42.95991,-22.0118,-4.536688,991.9931
4.874972820,2.949038,-40.73437,-49.96264,-0.04204634,0.1124449,0.9001325,42.95991,-22.0118,-4.536688,991.9931
4.882351398,9.192948,-55.13251,-52.15706,0.05975351,0.04665496,0.8156177,42.95991,-22.0118,-4.536688,991.9931
4.887270451,12.03671,-66.62733,-52.94949,-0.02571935,0.160886,0.8476573,42.95991,-22.0118,-4.536688,991.9931
4.892189980,13.08766,-78.2999,-52.27898,-0.0190582,0.06876946,0.8732957,42.95991,-22.0118,-4.536688,991.9914
4.897109032,13.45859,-87.89867,-50.02359,-0.003031302,0.06382598,0.8584396,42.95991,-22.0118,-4.536688,991.9914
4.902028561,14.20044,-96.90492,-46.91482,-0.002750289,0.06422947,0.8370867,42.95991,-22.0118,-4.536688,991.9914
4.906947613,15.00411,-105.3779,-42.83075,0.0253488,0.03801604,0.8437842,41.45462,-21.31419,-4.902409,991.9914
4.911867142,16.05507,-112.4288,-37.83233,0.0253716,0.02977528,0.8410921,41.45462,-21.31419,-4.902409,991.9914
4.916786194,16.98238,-118.2948,-32.46818,0.008740807,0.02432671,0.8376551,41.45462,-21.31419,-4.902409,991.9914
4.921705723,17.53877,-123.7459,-26.37255,-0.003633414,0.03558993,0.8293782,41.45462,-21.31419,-4.902409,991.9914
4.926624775,17.22966,-129.3156,-19.48449,-0.03019181,0.05203201,0.824297,41.45462,-21.31419,-4.902409,991.9914
4.931544304,16.67328,-134.115,-12.41356,-0.04641119,0.06795262,0.8259115,41.45462,-21.31419,-4.902409,991.9871
4.938922882,15.31322,-140.8104,-1.685253,-0.08316108,0.08029357,0.8266088,41.45462,-21.31419,-4.902409,991.9871
4.943841934,14.20044,-145.1358,5.50759,-0.107645,0.08398979,0.8259572,41.45462,-21.31419,-4.902409,991.9871
4.948761463,13.76769,-149.2834,12.82234,-0.157605,0.09140057,0.8232061,41.45462,-21.31419,-4.902409,991.9871
4.953680515,13.70587,-153.5495,20.01519,-0.2095977,0.1124414,0.8209087,41.45462,-21.31419,-4.902409,991.9871
4.958600044,12.9022,-158.3489,27.08612,-0.2551558,0.1223018,0.8196566,41.7693,-19.7211,-8.751404,991.9871
4.963519096,12.16035,-163.2668,34.218,-0.2836489,0.1415781,0.8185664,41.7693,-19.7211,-8.751404,991.9871
4.968438625,10.98575,-167.4736,40.55746,-0.2940021,0.1638248,0.8237345,41.7693,-19.7211,-8.751404,991.9871
4.973357677,9.99662,-171.6212,46.40926,-0.3214171,0.1694169,0.8246242,41.7693,-19.7211,-8.751404,991.9854
4.978277206,9.625694,-175.1171,52.32202,-0.3532638,0.1745453,0.8221369,41.7693,-19.7211,-8.751404,991.9854
4.983201027,9.378411,-179.0277,58.05191,-0.3767896,0.1734669,0.8164689,41.7693,-19.7211,-8.751404,991.9854
4.988115788,9.440232,-182.2865,63.53798,-0.4037456,0.1752639,0.8118924,41.7693,-19.7211,-8.751404,991.9854
4.993034363,9.872978,-185.2491,68.78023,-0.420356,0.1895455,0.8226829,41.7693,-19.7211,-8.751404,991.9854
5.000413418,10.61483,-189.0412,76.09498,-0.4369435,0.2047475,0.8364158,41.7693,-19.7211,-8.751404,991.9854
5.005332947,10.61483,-190.8188,80.42287,-0.4609902,0.2177091,0.8360577,39.89865,-19.53357,-13.92703,991.9854
5.010251999,10.61483,-192.7148,84.50695,-0.4796429,0.2364776,0.8406969,39.89865,-19.53357,-13.92703,991.9854
5.015171528,9.749336,-193.9591,87.43285,-0.4894905,0.2524286,0.8437167,39.89865,-19.53357,-13.92703,991.9836
5.020090580,8.883843,-195.3811,89.8711,-0.4920141,0.274737,0.8493081,39.89865,-19.53357,-13.92703,991.9836
5.025010109,7.400143,-195.4996,91.21214,-0.4933791,0.283207,0.865128,39.89865,-19.53357,-13.92703,991.9836
5.029929161,5.85462,-195.6774,91.88266,-0.5043309,0.3066236,0.8596567,39.89865,-19.53357,-13.92703,991.9836
5.034847736,4.370919,-195.1441,91.51692,-0.4836245,0.3180631,0.8836447,39.89865,-19.53357,-13.92703,991.9836
5.039767265,3.258143,-193.2481,90.2978,-0.4726937,0.3159024,0.8999939,39.89865,-19.53357,-13.92703,991.9836
5.044686317,4.123635,-189.8707,88.04241,-0.4844951,0.3251024,0.9499103,39.89865,-19.53357,-13.92703,991.9836
5.049605846,6.163725,-186.7304,86.88424,-0.5816362,0.304589,0.9573328,39.89865,-19.53357,-13.92703,991.9836
5.054524898,9.31659,-185.2491,85.96989,-0.6669859,0.2845604,0.9705006,39.89865,-19.53357,-13.92703,991.988
5.059444427,13.45859,-184.5974,88.40815,-0.7603356,0.3081926,0.9924169,36.54611,-21.10548,-19.16019,991.988
5.064363479,13.70587,-187.2044,87.98145,-0.7578613,0.2541771,1.012999,36.54611,-21.10548,-19.16019,991.988
5.069283008,15.31322,-186.4934,90.90736,-0.8047481,0.3606983,1.136241,36.54611,-21.10548,-19.16019,991.988
5.074202060,17.53877,-185.5454,92.37031,-0.9248558,0.3350756,1.04124,36.54611,-21.10548,-19.16019,991.988
5.079121589,19.82614,-191.0558,95.84482,-0.9655663,0.2607252,1.085317,36.54611,-21.10548,-19.16019,991.988
5.086500168,24.77181,-201.6618,105.1711,-0.9905494,0.3859674,1.208979,36.54611,-21.10548,-19.16019,991.988
5.091419220,23.34993,-202.1358,108.5237,-1.091086,0.4226821,1.102221,36.54611,-21.10548,-19.16019,991.988
5.096338749,20.25889,-207.9425,110.1695,-1.143166,0.5152531,1.134749,36.54611,-21.10548,-19.16019,991.9897
5.101257801,15.8696,-212.7419,111.2668,-1.198657,0.5455692,1.13035,36.54611,-21.10548,-19.16019,991.9897
5.106177330,10.49119,-217.008,111.6935,-1.22068,0.5564899,1.135736,32.06505,-23.068,-25.23892,991.9897
5.111096382,3.443605,-220.8001,112.1811,-1.231112,0.6044427,1.148526,32.06505,-23.068,-25.23892,991.9897
5.116015911,-3.418513,-222.2222,112.303,-1.235627,0.6079963,1.138967,32.06505,-23.068,-25.23892,991.9897
5.120934963,-8.611468,-223.5257,112.7297,-1.232257,0.5666625,1.107996,32.06505,-23.068,-25.23892,991.9897
5.125854492,-12.87711,-221.3334,112.5468,-1.216427,0.5408803,1.059943,32.06505,-23.068,-25.23892,991.9897
5.130773544,-15.28812,-217.0673,112.6078,-1.22806,0.5410348,1.020229,32.06505,-23.068,-25.23892,991.9897
5.135693073,-16.46272,-208.7128,111.6935,-1.25301,0.5369461,0.9664085,32.06505,-23.068,-25.23892,991.988
5.140612125,-16.95729,-199.2918,110.4743,-1.307791,0.5181191,0.904106,32.06505,-23.068,-25.23892,991.988
5.145531654,-13.86624,-189.6337,107.4265,-1.498766,0.545729,0.7458466,32.06505,-23.068,-25.23892,991.988
5.150450706,-9.353319,-177.2502,106.2074,-1.498841,0.4788938,0.7985697,32.06505,-23.068,-25.23892,991.988
5.157829284,3.010859,-161.8447,102.9157,-1.8576,0.4013701,0.5232448,23.63286,-26.47234,-29.26234,991.988
5.162748813,15.00411,-154.2013,102.0624,-1.996447,0.2910362,0.4111159,23.63286,-26.47234,-29.26234,991.988
5.167667866,28.54289,-146.7948,103.1596,-2.093943,0.1814956,0.2763385,23.63286,-26.47234,-29.26234,991.988
5.172587395,41.71074,-141.8177,106.2683,-2.137988,0.03021341,0.1300734,23.63286,-26.47234,-29.26234,991.988
5.177506447,55.55862,-136.6628,111.0229,-2.074258,-0.1242848,0.05030996,23.63286,-26.47234,-29.26234,991.9862
5.182425976,68.10826,-128.4861,115.8385,-2.007226,-0.2746622,-0.03954467,23.63286,-26.47234,-29.26234,991.9862
5.187345028,78.92692,-117.9985,121.3245,-1.962645,-0.3809902,-0.1481952,23.63286,-26.47234,-29.26234,991.9862
5.192264557,87.58184,-104.5484,124.9819,-1.976959,-0.4257319,-0.2398217,23.63286,-26.47234,-29.26234,991.9862
5.197183132,91.04381,-88.25418,125.3477,-2.003864,-0.384538,-0.3164512,23.63286,-26.47234,-29.26234,991.9862
5.202102184,89.18919,-70.41943,120.654,-2.100532,-0.228187,-0.5068009,23.63286,-26.47234,-29.26234,991.9862
5.209481716,75.77405,-47.19279,103.7082,-2.194113,-0.05713482,-0.6214467,14.85986,-27.44944,-28.93007,991.9862
5.214400768,61.98799,-30.72084,85.05556,-2.231105,0.06701066,-0.6788256,14.85986,-27.44944,-28.93007,991.9862
5.219320297,43.44172,-14.8414,61.95312,-2.222735,0.2303707,-0.7251233,14.85986,-27.44944,-28.93007,991.9906
5.224239349,21.37166,-1.154267,35.13235,-2.174492,0.3844291,-0.750683,14.85986,-27.44944,-28.93007,991.9906
5.229158878,-2.182096,11.82184,5.995241,-2.081648,0.4480992,-0.720757,14.85986,-27.44944,-28.93007,991.9906
5.234077930,-23.38666,25.74598,-24.9096,-1.924607,0.4909026,-0.6400747,14.85986,-27.44944,-28.93007,991.9906
5.238996506,-38.47096,39.55161,-52.03515,-1.844783,0.3443944,-0.6182372,14.85986,-27.44944,-28.93007,991.9906
5.243916035,-45.58036,51.16493,-72.76028,-1.761037,0.2075702,-0.5388284,14.85986,-27.44944,-28.93007,991.9906
5.248835087,-65.30122,56.31983,-86.23163,-1.48041,0.6261122,1.278963,14.85986,-27.44944,-28.93007,991.9906
5.253754616,-74.20343,135.954,-108.8464,-1.180993,-0.08213457,-0.2644698,9.796349,-29.98381,-26.84705,991.9906
5.258673668,-91.5751,108.165,-95.31412,-0.0659895,0.4617932,-1.066053,9.796349,-29.98381,-26.84705,991.9888
5.263593197,-67.71223,109.5871,-116.2831,-0.5407432,0.7418455,0.4442115,9.796349,-29.98381,-26.84705,991.9888
5.268512249,-54.23529,132.3397,-116.7098,-1.025851,0.1553839,1.160119,9.796349,-29.98381,-26.84705,991.9888
5.273431778,-50.77332,99.81054,-85.37823,0.1610865,0.3550083,2.130761,9.796349,-29.98381,-26.84705,991.9888
5.278350830,-71.91605,117.2898,-69.59056,0.05787371,0.5232537,1.979204,9.796349,-29.98381,-26.84705,991.9888
5.283270359,-92.56423,123.9852,-50.32837,-0.4695307,0.4273774,1.042891,9.796349,-29.98381,-26.84705,991.9888
5.288194656,-82.85835,131.2139,-38.07616,0.3401668,0.19445,0.9219595,9.796349,-29.98381,-26.84705,991.9888
5.295567989,-65.67215,196.924,-16.31476,0.9511247,-0.4180362,1.465383,9.796349,-29.98381,-26.84705,991.9888
5.300487518,-56.76994,229.9271,3.86177,0.2201229,-0.3994991,1.144727,9.796349,-29.98381,-26.84705,991.9871
5.305406570,-35.31809,237.0373,11.60322,-0.5036826,-0.6572453,0.995286,12.32177,-28.19083,-28.06419,991.9871
5.310326099,-13.30986,235.7931,14.71199,-1.494847,-0.4933006,1.327188,12.32177,-28.19083,-28.06419,991.9871
5.315245151,-2.367558,220.3876,5.202809,-2.328679,-0.2932898,0.8519959,12.32177,-28.19083,-28.06419,991.9871
5.320164680,12.65492,189.8138,-16.19285,-2.442063,-0.3484448,0.878348,12.32177,-28.19083,-28.06419,991.9871
5.325083732,31.8194,163.4468,-36.49129,-2.203246,-0.6661874,0.8997023,12.32177,-28.19083,-28.06419,991.9871
5.330003261,54.07492,138.3241,-46.30526,-2.005158,-0.7723795,0.9864379,12.32177,-28.19083,-28.06419,991.9871
5.334922314,65.82088,111.2461,-45.51283,-1.448691,-0.3429957,0.9810719,12.32177,-28.19083,-28.06419,991.9871
5.339841842,71.01384,101.2918,-40.3925,-1.214621,0.4214969,0.7171968,12.32177,-28.19083,-28.06419,991.9897
5.344760895,59.82426,95.60367,-36.24747,-0.7726001,0.9978681,0.7519558,12.32177,-28.19083,-28.06419,991.9897
5.349680424,43.00898,95.60367,-32.52914,-0.5058601,1.320531,0.9679208,12.32177,-28.19083,-28.06419,991.9897
5.354599476,17.41513,99.98829,-26.43351,-0.4572535,1.409763,0.9402797,18.56222,-25.45665,-25.40877,991.9897
5.359518051,-6.447737,102.7139,-19.17971,-0.5635218,1.516517,0.7892036,18.56222,-25.45665,-25.40877,991.9897
5.364437580,-29.75421,102.2399,-19.78927,-0.6123573,1.318753,0.726456,18.56222,-25.45665,-25.40877,991.9897
5.369356632,-44.65305,102.0621,-28.07933,-0.7252609,0.8138564,0.7296448,18.56222,-25.45665,-25.40877,991.9897
5.374276161,-46.81678,96.9072,-35.02834,-0.8312328,0.2654631,0.714874,18.56222,-25.45665,-25.40877,991.9897
5.381655216,-39.89284,86.65667,-40.57537,-0.904004,-0.06122633,0.7792836,18.56222,-25.45665,-25.40877,991.988
5.386574745,-39.95466,75.99138,-38.07616,-0.8852185,0.03494712,0.7574507,18.56222,-25.45665,-25.40877,991.988
5.391493797,-35.68902,69.82921,-34.05304,-0.919202,0.3233334,0.656274,18.56222,-25.45665,-25.40877,991.988
5.396413326,-31.23792,60.7637,-29.54228,-0.836359,0.6345842,0.5616691,18.56222,-25.45665,-25.40877,991.988
5.401332378,-31.42338,55.2533,-31.06618,-0.7242965,0.7078124,0.6631173,21.88945,-25.91082,-23.62511,991.988
5.406250954,-29.56875,50.45391,-35.63791,-0.7348603,0.4624376,0.6344588,21.88945,-25.91082,-23.62511,991.988
5.411173820,-25.67403,45.95079,-37.89329,-0.6654618,0.09972478,0.7106271,21.88945,-25.91082,-23.62511,991.988
5.416089535,-22.52117,44.23249,-35.39408,-0.60567,-0.06578369,0.7737758,21.88945,-25.91082,-23.62511,991.988
5.421009064,-17.45185,43.10671,-32.77296,-0.7514807,-0.02645865,0.792256,21.88945,-25.91082,-23.62511,991.988
5.425928116,-15.10266,41.0329,-29.48132,-0.9040013,0.07323058,0.7097933,21.88945,-25.91082,-23.62511,991.988
5.430847645,-13.30986,33.50794,-27.16498,-0.863391,0.2389049,0.7113731,21.88945,-25.91082,-23.62511,991.988
5.435766697,-12.93893,29.83434,-28.20124,-0.7356049,0.252803,0.7331046,21.88945,-25.91082,-23.62511,991.988
5.443145275,-11.0843,27.10877,-27.46976,-0.6609753,0.1642351,0.8097656,21.88945,-25.91082,-23.62511,991.988
5.448064804,-10.40427,25.74598,-27.10403,-0.6540226,0.1558749,0.7647713,21.88945,-25.91082,-23.62511,991.988
5.452983856,-11.0843,24.97571,-25.33629,-0.6460277,0.1811531,0.7470659,24.06649,-24.12372,-22.73419,991.988
5.457903385,-11.02248,25.09421,-23.32474,-0.6524652,0.2275159,0.7165599,24.06649,-24.12372,-22.73419,991.988
5.462822437,-11.76433,24.5017,-22.77613,-0.6607293,0.264473,0.7445171,24.06649,-24.12372,-22.73419,991.9836
5.467741966,-11.45523,22.42789,-23.9343,-0.6080151,0.2294897,0.7623842,24.06649,-24.12372,-22.73419,991.9836
5.472661018,-9.971528,22.19088,-23.81239,-0.5876399,0.1885466,0.7706149,24.06649,-24.12372,-22.73419,991.9836
5.477580547,-11.9498,22.42789,-22.77613,-0.648981,0.2158579,0.715672,24.06649,-24.12372,-22.73419,991.9836
5.482499599,-9.909707,19.16905,-22.71517,-0.761825,0.114847,0.8206627,24.06649,-24.12372,-22.73419,991.9836
5.487419128,-8.116901,15.91021,-21.0084,-0.7509647,-0.01541594,0.8018309,24.06649,-24.12372,-22.73419,991.9836
5.492338180,-7.622334,15.02143,-17.16815,-0.6273806,0.04141213,0.7691368,24.06649,-24.12372,-22.73419,991.9836
5.497257709,-6.509558,15.5547,-14.36416,-0.6306441,0.1890595,0.7748686,24.06649,-24.12372,-22.73419,991.9836
5.502176762,-6.014991,14.01415,-13.63269,-0.6845508,0.2393707,0.6934121,25.49167,-23.09704,-22.69925,991.9897
5.507096290,-5.334961,12.29586,-13.14503,-0.6689426,0.1875604,0.7586267,25.49167,-23.09704,-22.69925,991.9897
5.512015343,-5.334961,11.40708,-12.10878,-0.6517708,0.1495176,0.7407578,25.49167,-23.09704,-22.69925,991.9897
5.519393921,-4.716752,11.34783,-9.487658,-0.69024,0.1642575,0.7167839,25.49167,-23.09704,-22.69925,991.9897
5.524313450,-3.789439,8.740758,-8.878095,-0.640037,0.1819362,0.7601513,25.49167,-23.09704,-22.69925,991.9897
5.529232502,-2.985767,9.451777,-8.268532,-0.6279688,0.1944046,0.7512268,25.49167,-23.09704,-22.69925,991.9897
5.534152031,-2.985767,8.444499,-7.841838,-0.6397845,0.1857698,0.7379375,25.49167,-23.09704,-22.69925,991.9897
5.539071083,-3.233051,7.674228,-7.719925,-0.6357614,0.1860749,0.7495671,25.49167,-23.09704,-22.69925,991.9897
5.543990612,-4.036722,6.429944,-7.293231,-0.6350178,0.1995524,0.7334849,25.49167,-23.09704,-22.69925,991.9914
5.548909664,-3.789439,6.31144,-6.866537,-0.6205168,0.1937659,0.762798,25.86833,-23.46686,-22.70968,991.9914
5.553829193,-4.160364,5.778175,-6.683668,-0.6504334,0.1618343,0.7348298,25.86833,-23.46686,-22.70968,991.9914
