Time (s),Gyroscope X (deg/s),Gyroscope Y (deg/s),Gyroscope Z (deg/s),Accelerometer X (g),Accelerometer Y (g),Accelerometer Z (g),Magnetometer X (uT),Magnetometer Y (uT),Magnetometer Z (uT),Barometer (hPa)
0.004917622,-0.02798895,-0.1112239,0.02196567,-0.5374576,0.04622548,0.8151645,36.37669,-1.891024,-35.95534,990.3917
0.009836197,0.03381072,0.1256852,-0.03890869,-0.5359091,0.04174316,0.8208345,36.37669,-1.891024,-35.95534,990.3917
0.014754295,0.09559093,-0.1112701,-0.03892252,-0.5379179,0.03941534,0.8139789,37.81765,-2.223594,-35.51467,990.3917
0.019672871,-0.02805262,0.1256761,0.143875,-0.5335431,0.04673924,0.8156344,37.81765,-2.223594,-35.51467,990.3917
0.024590969,0.15735,0.06638268,0.02196779,-0.5384166,0.04280471,0.8150627,37.81765,-2.223594,-35.51467,990.3917
0.029512882,-0.1517174,0.007126521,0.02197311,-0.5393708,0.03937486,0.8154461,37.81765,-2.223594,-35.51467,990.3917
0.034427643,0.09550615,0.066355,-0.1608713,-0.5345567,0.04053,0.8081606,37.81765,-2.223594,-35.51467,990.39
0.039348602,-0.08993883,0.007043004,0.02200293,-0.5383936,0.04372513,0.8180053,37.81765,-2.223594,-35.51467,990.39
0.044263840,-0.1516644,0.1847562,-0.09984687,-0.5345343,0.03904053,0.8095692,37.81765,-2.223594,-35.51467,990.39
0.049182415,0.09555909,-0.0522734,0.02203272,-0.5393628,0.04128825,0.8174495,37.81765,-2.223594,-35.51467,990.39
0.054100513,0.03367812,0.06616966,-0.03887997,-0.531542,0.04040236,0.8163859,37.81765,-2.223594,-35.51467,990.39
0.061477661,-0.08991779,0.06618175,0.0219981,-0.5384486,0.04768796,0.814734,37.81765,-2.223594,-35.51467,990.39
0.066396713,0.09552372,0.006907162,0.02192686,-0.5384282,0.04572015,0.8156418,37.06993,-2.217255,-35.51628,990.39
0.071314335,0.03373991,0.06609857,0.2657,-0.5359409,0.04325077,0.8184554,37.06993,-2.217255,-35.51628,990.39
0.076232910,-0.028141,-0.05239037,-0.03913355,-0.5393881,0.04664078,0.8181069,37.06993,-2.217255,-35.51628,990.3884
0.081151009,0.1573005,0.1253044,0.02178987,-0.5363935,0.04172967,0.8213236,37.06993,-2.217255,-35.51628,990.3884
0.086069584,0.03359877,0.006796861,0.1436313,-0.5335213,0.0428399,0.8155091,37.06993,-2.217255,-35.51628,990.3884
0.090992928,-0.02822383,0.06600691,-0.0392512,-0.5360068,0.04916327,0.8152468,37.06993,-2.217255,-35.51628,990.3884
0.095906258,0.03355655,0.06598409,0.1435466,-0.5384241,0.0433012,0.8145931,37.06993,-2.217255,-35.51628,990.3884
0.100824356,0.03361315,-0.0524862,-0.1611336,-0.5358967,0.03786196,0.8197389,37.06993,-2.217255,-35.51628,990.3884
0.105748177,-0.02822891,0.2436932,-0.03919633,-0.537889,0.04177081,0.8184239,37.06993,-2.217255,-35.51628,990.3884
0.110660553,-0.02819176,0.006626662,0.08270259,-0.5359695,0.04668083,0.8175945,37.06993,-2.217255,-35.51628,990.3884
0.115584850,0.09535126,0.2435174,-0.1001033,-0.5363806,0.04025835,0.8217618,37.06993,-2.217255,-35.51628,990.3826
0.120497227,0.09531076,0.0657211,0.02177639,-0.5408447,0.03889231,0.8144717,37.06993,-2.217255,-35.51628,990.3826
0.127874374,-0.02838196,0.06567771,0.08267388,-0.5402794,0.0411615,0.8237649,37.06993,-2.217255,-35.51628,990.3826
0.132792950,0.09519998,0.1841024,0.08260281,-0.5384124,0.04038576,0.814014,37.06993,-2.217255,-35.51628,990.3826
0.137711048,-0.09022537,0.1247352,0.08253177,-0.5379445,0.04332377,0.8136188,37.06993,-2.217255,-35.51628,990.3826
0.142629147,0.1570372,-0.171471,0.02158109,-0.5370029,0.04484928,0.8107468,37.06993,-2.217255,-35.51628,990.3826
0.147547722,0.03337444,0.1840162,0.08242809,-0.5378855,0.04031762,0.8178918,37.06993,-2.217255,-35.51628,990.3826
0.152465820,0.0332758,-0.2306934,0.08239545,-0.5365055,0.04001581,0.8086456,37.06993,-2.217255,-35.51628,990.3826
0.157384396,-0.02854656,-0.1121382,0.08236284,-0.5335327,0.04237968,0.8140379,37.06993,-2.217255,-35.51628,990.3826
0.162302017,-0.09031068,0.006305139,0.1431908,-0.5388662,0.03742054,0.8158648,37.06479,-1.545073,-35.49568,990.3826
0.167221069,-0.02835543,-0.1121649,0.14312,-0.5335531,0.0443475,0.8131301,37.06479,-1.545073,-35.49568,990.3826
0.172140122,-0.0901973,-0.05288005,0.0211941,-0.5378358,0.04311517,0.8247786,37.06479,-1.545073,-35.49568,990.3826
0.177057266,0.09522492,0.2432626,0.1430551,-0.543242,0.02865255,0.8131919,37.06479,-1.545073,-35.49568,990.3826
0.181975365,0.2187292,0.006214841,0.2038832,-0.5320298,0.04184205,0.8174071,37.06479,-1.545073,-35.49568,990.3826
0.186893940,0.218553,-0.1122738,0.142818,-0.5439536,0.06668485,0.8134461,37.06479,-1.545073,-35.49568,990.3826
0.194271088,-0.0905438,-0.1121308,-0.1010077,-0.5300057,0.0364256,0.8211011,37.06479,-1.545073,-35.49568,990.3826
0.199189186,0.03311597,0.1247601,-0.1009251,-0.5383492,0.03496067,0.8172383,37.06479,-1.545073,-35.49568,990.3826
0.204107761,-0.02868688,0.1839519,0.2038048,-0.5364318,0.03939234,0.8159081,37.06479,-1.545073,-35.49568,990.3826
0.209025860,-0.09045094,-0.2899535,0.1427588,-0.540363,0.0485544,0.8196328,37.06479,-1.545073,-35.49568,990.3826
0.213944435,0.09497146,0.06553373,-0.1010794,-0.533987,0.04616577,0.8199894,37.81214,-2.208712,-35.96161,990.3826
0.218862534,-0.1522164,0.006259594,0.1426752,-0.5384116,0.03941999,0.8134975,37.81214,-2.208712,-35.96161,990.3826
0.223781109,0.03324479,-0.05295882,0.142643,-0.5398841,0.0370059,0.8114901,37.81214,-2.208712,-35.96161,990.3826
0.228698731,0.1568074,0.2431651,-0.04023891,-0.5379641,0.04432581,0.8121945,37.81214,-2.208712,-35.96161,990.3826
0.233617783,-0.02867609,0.1245463,-0.1621454,-0.5418934,0.04480502,0.8107855,37.81214,-2.208712,-35.96161,990.3849
0.238535404,0.09494488,-0.1716412,-0.0401692,-0.5334982,0.05292149,0.8240863,37.81214,-2.208712,-35.96161,990.3849
0.243453980,0.09490461,0.1246317,0.08169202,-0.5423405,0.04230909,0.8136224,37.81214,-2.208712,-35.96161,990.3849
0.248372078,-0.09055942,0.1246092,0.02074186,-0.5378657,0.03593993,0.8172657,37.81214,-2.208712,-35.96161,990.3849
0.253290653,0.03302276,0.0653537,0.02069053,-0.538918,0.04668149,0.8161622,37.81214,-2.208712,-35.96161,990.3849
0.260667801,0.03293338,-0.05306235,0.1425645,-0.5309587,0.04360105,0.8281364,37.44145,-1.914887,-35.50611,990.3849
0.265585899,0.03287389,0.1245771,-0.1012545,-0.5364833,0.04190199,0.8121046,37.44145,-1.914887,-35.50611,990.3849
0.270509243,0.03289211,-0.05316304,0.1425194,-0.5374066,0.04130596,0.817434,37.44145,-1.914887,-35.50611,990.3849
0.275422573,0.03287147,0.1838397,-0.04032416,-0.5334487,0.03739667,0.8197039,37.44145,-1.914887,-35.50611,990.3832
0.280341148,0.09465227,0.06531391,-0.1012359,-0.5349655,0.04374704,0.8184633,37.44145,-1.914887,-35.50611,990.3832
0.285259247,-0.02902954,0.006021249,-0.04027349,-0.5369392,0.04183408,0.815505,37.44145,-1.914887,-35.50611,990.3832
0.290177822,0.03275132,-0.230896,0.02070809,-0.5359598,0.04328705,0.8165146,37.44145,-1.914887,-35.50611,990.3832
0.295095444,0.1563143,0.1838616,0.1425694,-0.5398946,0.0447411,0.8151369,37.44145,-1.914887,-35.50611,990.3832
0.300014496,0.1562355,-0.1123446,-0.04031247,-0.533988,0.04134601,0.8169217,37.44145,-1.914887,-35.50611,990.3832
0.304932118,0.09435525,-0.05298527,0.0206117,-0.5351014,0.04545416,0.8054097,37.44145,-1.914887,-35.50611,990.3832
0.309850216,0.0324945,0.1247285,0.02059874,-0.5369183,0.04227614,0.8179467,36.69607,-2.214085,-35.51709,990.3832
0.314768791,-0.1529303,-0.05301172,0.1424792,-0.5373991,0.04080947,0.8179036,36.69607,-2.214085,-35.51709,990.3832
0.319686890,-0.09107164,0.00621744,-0.04040255,-0.5374526,0.04284078,0.8135993,36.69607,-2.214085,-35.51709,990.3832
0.324605465,-0.02921296,-0.1121967,-0.1013526,-0.5389198,0.0428275,0.8136109,36.69607,-2.214085,-35.51709,990.3832
0.329523563,0.03254863,0.006339834,-0.04039005,-0.5340304,0.05058881,0.8181895,36.69607,-2.214085,-35.51709,990.3832
0.334442139,-0.02931212,0.006335765,0.1424468,-0.5378614,0.04268217,0.8218517,36.69607,-2.214085,-35.51709,990.3832
0.341819286,-0.09106657,-0.2898354,-0.1013212,-0.5404021,0.04718284,0.8147339,36.69607,-2.214085,-35.51709,990.3832
0.346737862,0.03257415,0.1249406,0.08153474,-0.5373231,0.03391306,0.8215661,36.69607,-2.214085,-35.51709,990.3832
0.351655960,0.0325343,-0.05281835,-0.1013279,-0.5374496,0.04813888,0.8171679,36.69607,-2.214085,-35.51709,990.3832
0.356573582,0.0325333,0.006354752,0.02061005,-0.5403351,0.0460901,0.8210102,36.69607,-2.214085,-35.51709,990.3815
0.361492157,-0.0292692,-0.1713111,-0.1012389,-0.5345004,0.04717245,0.8180838,37.81214,-2.208712,-35.96161,990.3815
0.366410256,-0.0910911,0.3025678,0.0207373,-0.5393361,0.0340042,0.8157591,37.81214,-2.208712,-35.96161,990.3815
0.371328831,0.09433173,0.006305478,0.02068597,-0.5369278,0.04229429,0.8169762,37.81214,-2.208712,-35.96161,990.3815
0.376246929,-0.09111249,0.006320057,0.08162924,-0.5384468,0.05154195,0.8172852,37.81214,-2.208712,-35.96161,990.3815
0.381165505,-0.02931206,-0.1121314,-0.2230886,-0.538438,0.03995275,0.8110871,37.81214,-2.208712,-35.96161,990.3815
0.386083603,0.03250783,-0.1120423,-0.04017531,-0.5393738,0.04323793,0.8175121,37.81214,-2.208712,-35.96161,990.3815
0.391002178,-0.02927521,-0.05281326,0.02078706,-0.5394121,0.0409006,0.8120965,37.81214,-2.208712,-35.96161,990.3815
0.395920277,-0.02923742,-0.111976,0.1426866,-0.5344647,0.03746038,0.81583,37.81214,-2.208712,-35.96161,990.3815
0.400838852,-0.1528414,-0.05270974,0.1426352,-0.5324768,0.03934612,0.8202439,37.81214,-2.208712,-35.96161,990.3815
0.408216000,-0.09091534,0.006479857,-0.0402532,-0.5389225,0.04331492,0.8136265,37.81214,-2.208712,-35.96161,990.3815
0.413134098,-0.02909557,0.06570879,0.02074753,-0.5334976,0.04279455,0.8179352,37.43314,-1.53336,-35.94181,990.3815
0.418052673,0.218148,0.006434426,-0.0401835,-0.5324966,0.04372382,0.82087,37.43314,-1.53336,-35.94181,990.3815
0.422970295,0.0944856,-0.05276534,0.2035137,-0.5374635,0.04479044,0.8136619,37.43314,-1.53336,-35.94181,990.3815
0.427888870,0.03258594,-0.05273212,-0.1012041,-0.5398905,0.04232215,0.8140882,37.43314,-1.53336,-35.94181,990.3815
0.432806969,0.03258488,-0.111932,0.2644057,-0.5359218,0.03983884,0.8183458,37.43314,-1.53336,-35.94181,990.3815
0.437725544,0.1561674,-0.05262871,0.02054851,-0.5418264,0.0437123,0.8170618,37.43314,-1.53336,-35.94181,990.3798
0.442643643,0.03250517,-0.1118472,0.08151105,-0.5423905,0.04288721,0.808786,37.43314,-1.53336,-35.94181,990.3798
0.447562218,0.03246532,-0.05258125,-0.1013516,-0.5373518,0.04071878,0.8227556,37.43314,-1.53336,-35.94181,990.3798
0.452480316,-0.02933718,0.243617,0.08146609,-0.535432,0.0388775,0.8178255,37.43314,-1.53336,-35.94181,990.3798
0.457398892,-0.1529217,0.006624854,0.02051605,-0.5433288,0.04328416,0.8131763,37.43314,-1.53336,-35.94181,990.3798
0.462316990,-0.09102418,0.06585378,-0.04045315,-0.535968,0.04474929,0.8165616,37.0676,-1.911717,-35.50692,990.3798
0.467235565,-0.02918489,0.0658496,-0.101384,-0.5374427,0.0452325,0.8161036,37.0676,-1.911717,-35.50692,990.3798
0.472153187,0.2179811,-0.2303382,0.1423899,-0.5359156,0.03789824,0.8177981,37.0676,-1.911717,-35.50692,990.3798
0.477071762,0.03253683,0.06587864,0.08138249,-0.5374312,0.04569272,0.8175749,37.0676,-1.911717,-35.50692,990.3798
0.484449387,-0.1528594,0.006676501,-0.1014099,-0.5389497,0.04481344,0.8117328,37.0676,-1.911717,-35.50692,990.3798
0.489367008,-0.02919922,-0.1117751,0.02050892,-0.5349643,0.04519115,0.8194807,37.0676,-1.911717,-35.50692,990.3798
0.494285584,-0.2763867,0.006761148,0.02051517,-0.539811,0.04650939,0.8249036,37.0676,-1.911717,-35.50692,990.3798
0.499203682,0.1563777,0.184456,0.02050227,-0.5379087,0.04277286,0.8169996,37.0676,-1.911717,-35.50692,990.3798
0.504122257,0.09449739,-0.0525548,-0.1013658,-0.5359576,0.04038975,0.8149651,37.0676,-1.911717,-35.50692,990.3798
0.509040356,-0.0909664,-0.1710436,0.08152849,-0.5359399,0.04807053,0.8215231,37.44145,-1.914887,-35.50611,990.3798
0.513958931,-0.02910778,0.06599584,0.0205593,-0.5394557,0.04532363,0.8102967,37.44145,-1.914887,-35.50611,990.3798
0.518877030,-0.02918654,0.006721368,-0.0404099,-0.5393885,0.04085525,0.8145226,37.44145,-1.914887,-35.50611,990.3859
0.523794651,0.09445418,0.1252018,-0.04034625,-0.5340104,0.04283547,0.815513,37.44145,-1.914887,-35.50611,990.3859
0.528713226,0.03259337,0.006657063,-0.04030174,-0.5413724,0.03992621,0.8111104,37.44145,-1.914887,-35.50611,990.3859
0.533631325,-0.2146135,0.00670871,-0.1621507,-0.5393345,0.04123384,0.8203607,37.44145,-1.914887,-35.50611,990.3859
0.538549900,0.09447033,0.06593753,0.2035166,-0.5374088,0.04420326,0.8189835,37.44145,-1.914887,-35.50611,990.3859
0.543467999,0.09439156,0.006700234,0.0206156,-0.5350161,0.04191527,0.812093,37.44145,-1.914887,-35.50611,990.3859
0.550846100,0.156143,-0.05261357,0.08149504,-0.5389686,0.04484971,0.8097919,37.44145,-1.914887,-35.50611,990.3859
0.555763722,0.03251962,0.06582971,0.02050669,-0.5349235,0.04125553,0.8212963,37.44145,-1.914887,-35.50611,990.3859
0.560682297,0.03246037,0.006611179,0.02049378,-0.5360098,0.04386516,0.8116782,37.43828,-2.205542,-35.96241,990.3859
0.565600395,0.1560235,-0.111859,-0.0403988,-0.5368803,0.03882794,0.8197779,37.43828,-2.205542,-35.96241,990.3859
0.570518494,0.09412402,0.1251248,0.2642357,-0.5383927,0.03938371,0.8154383,37.43828,-2.205542,-35.96241,990.3859
0.575437069,-0.02951865,0.1249903,0.08133485,-0.5364352,0.04084553,0.8164402,37.43828,-2.205542,-35.96241,990.3859
0.580355168,0.03228196,-0.05273144,-0.04057136,-0.5355074,0.04480814,0.8136464,37.43828,-2.205542,-35.96241,990.3859
0.585273743,0.1558646,0.06578631,-0.1624584,-0.5379354,0.03752009,0.811005,37.43828,-2.205542,-35.96241,990.3859
0.590191364,0.09398464,0.06580078,0.1422527,-0.5374182,0.0442214,0.8180131,37.43828,-2.205542,-35.96241,990.3859
0.595109940,-0.0296579,0.06574077,-0.04062891,-0.5364206,0.04322821,0.8194297,37.43828,-2.205542,-35.96241,990.3859
0.600028038,0.09398305,0.006503703,0.142208,-0.5305781,0.04043842,0.8149225,37.43828,-2.205542,-35.96241,990.3859
0.604946613,0.2792895,0.06573263,0.1420995,-0.5369554,0.04138294,0.8135484,37.43828,-2.205542,-35.96241,990.3859
0.609864712,-0.02981561,-0.111952,-0.04076285,-0.5393685,0.04563874,0.8195312,37.0676,-1.911717,-35.50692,990.3859
0.614783287,-0.02981632,0.006565748,-0.04075637,-0.53939,0.04278679,0.8155556,37.0676,-1.911717,-35.50692,990.3859
0.622160435,-0.09160915,-0.1119438,0.08111805,-0.5428242,0.04470548,0.8156453,37.0676,-1.911717,-35.50692,990.3859
0.627078533,0.09383342,0.006555464,-0.101706,-0.5349688,0.04182457,0.8169451,37.0676,-1.911717,-35.50692,990.3859
0.631997109,0.09381332,0.006532748,-0.1626176,-0.5389171,0.04234007,0.8135952,37.0676,-1.911717,-35.50692,990.3859
0.636915207,-0.09165001,-0.05266725,0.02023858,-0.5369576,0.04428024,0.815098,37.0676,-1.911717,-35.50692,990.3841
0.641833782,-0.02981037,0.06581333,0.142081,-0.5399148,0.04333327,0.8121787,37.0676,-1.911717,-35.50692,990.3841
0.646751881,0.03200982,-0.1119085,0.0201749,-0.536879,0.04027206,0.8207953,37.0676,-1.911717,-35.50692,990.3841
0.651670456,0.1555344,0.06584226,0.02020053,-0.5355109,0.04626133,0.8141786,37.0676,-1.911717,-35.50692,990.3841
0.656588078,-0.02990953,0.006567895,-0.1017056,-0.539388,0.04326514,0.8160565,37.05738,-1.884079,-36.33695,990.3841
0.661506653,-0.09167276,0.06581536,0.1420877,-0.5408618,0.04278259,0.815082,37.05738,-1.884079,-36.33695,990.3841
0.666424751,0.03196837,-0.05265493,-0.1017118,-0.5403756,0.04665007,0.8171442,37.05738,-1.884079,-36.33695,990.3841
0.671343327,-0.1534367,-0.1118735,-0.2235031,-0.5306296,0.04294807,0.8111191,37.05738,-1.884079,-36.33695,990.3841
0.678720951,-0.09164594,-0.2302341,-0.04067243,-0.5374258,0.04471788,0.8175436,37.05738,-1.884079,-36.33695,990.3859
0.683638573,-0.02976745,-0.1709123,-0.1624829,-0.5350317,0.04387401,0.8116705,37.05738,-1.884079,-36.33695,990.3859
0.688557148,-0.09155019,0.06603415,0.08136776,-0.5364096,0.04127853,0.8193671,37.05738,-1.884079,-36.33695,990.3859
0.693475247,-0.09147325,-0.1116321,-0.1623554,-0.5418311,0.04372136,0.8165767,37.05738,-1.884079,-36.33695,990.3859
0.698393822,-0.02953669,-0.05232888,-0.04039822,-0.5320604,0.04479377,0.8160453,37.05738,-1.884079,-36.33695,990.3859
0.703311920,0.03220567,-0.05229611,-0.10131,-0.5398471,0.04127476,0.8179386,37.05738,-1.884079,-36.33695,990.3859
0.708230496,-0.1531607,0.1254172,-0.04030919,-0.5379067,0.04325121,0.8175005,36.38219,-1.905907,-35.5084,990.3859
0.713148594,-0.02950043,-0.1707709,-0.2230761,-0.5359382,0.04276336,0.8184398,36.38219,-1.905907,-35.5084,990.3859
0.718067169,-0.09122516,-0.05227204,0.08169231,-0.5354674,0.04183828,0.8159786,36.38219,-1.905907,-35.5084,990.3859
0.722984791,-0.09120671,-0.0522578,0.08167929,-0.5354559,0.04229849,0.8174498,36.38219,-1.905907,-35.5084,990.3859
0.727903366,0.03239528,-0.111458,-0.1621206,-0.5373986,0.04321936,0.8194374,36.38219,-1.905907,-35.5084,990.3859
0.732821465,-0.09126684,-0.05211778,-0.04016362,-0.5403836,0.04473667,0.8151408,36.38219,-1.905907,-35.5084,990.3859
0.737739563,-0.02936919,-0.2297655,-0.04013839,-0.5349581,0.04325055,0.8189328,36.38219,-1.905907,-35.5084,990.3859
0.742658138,-0.09113277,-0.1704439,0.02076651,-0.5344743,0.04085416,0.8169099,36.38219,-1.905907,-35.5084,990.3859
0.747576237,0.03246915,0.1257911,-0.1620388,-0.5379256,0.04328749,0.8155596,36.38219,-1.905907,-35.5084,990.3859
0.752494812,-0.09113478,0.007264623,-0.222855,-0.5384181,0.04473624,0.8160957,36.38219,-1.905907,-35.5084,990.3859
0.757412434,-0.02923725,-0.2889051,0.08189409,-0.5374021,0.04467253,0.8199696,37.06993,-2.217255,-35.51628,990.3859
0.764790535,-0.02922911,0.06663504,-0.1618551,-0.533488,0.03940076,0.8168552,37.06993,-2.217255,-35.51628,990.3859
0.769708634,-0.02919132,-0.1111059,0.2647492,-0.5364624,0.04234406,0.8145463,37.06993,-2.217255,-35.51628,990.3859
0.774627209,-0.09103273,0.007374133,-0.04000713,-0.5384146,0.04328306,0.8155635,37.06993,-2.217255,-35.51628,990.3859
0.779545307,-0.02915471,-0.111078,0.02093602,-0.5364301,0.04324635,0.8184593,37.06993,-2.217255,-35.51628,990.3859
0.784462929,0.03270392,0.2443528,0.0818983,-0.5369108,0.04177966,0.8184162,37.06993,-2.217255,-35.51628,990.3859
0.789381504,-0.1527405,0.06651875,0.1427648,-0.5355291,0.04533183,0.8117213,37.06993,-2.217255,-35.51628,990.3859
0.794299603,-0.09082367,0.007262589,0.1426751,-0.5344738,0.04326405,0.8184438,37.06993,-2.217255,-35.51628,990.3859
0.799218178,-0.02898456,0.1257427,-0.1011248,-0.5379223,0.04520994,0.8170778,37.06993,-2.217255,-35.51628,990.3875
0.804136276,0.09457834,-0.1112126,0.02075561,-0.5364191,0.04129667,0.8183967,37.06993,-2.217255,-35.51628,990.3875
0.809054852,-0.0908078,-0.1111985,0.08166057,-0.5369723,0.04189757,0.8121085,37.0676,-1.911717,-35.50692,990.3875
0.813972950,-0.02898809,0.1258034,0.02065301,-0.5364373,0.04036718,0.8159394,37.0676,-1.911717,-35.50692,990.3875
0.818891525,-0.09079076,-0.1111705,-0.04031625,-0.5418081,0.04126613,0.8174689,37.0676,-1.911717,-35.50692,990.3875
0.823809147,0.1564333,-0.1703337,0.02062708,-0.5350175,0.0438468,0.8131261,37.0676,-1.911717,-35.50692,990.3875
0.828728199,0.09459184,0.007453808,-0.1622165,-0.5369442,0.04521879,0.8170701,37.0676,-1.911717,-35.50692,990.3875
0.836105347,0.03272072,0.06675416,-0.04020847,-0.5354932,0.04478093,0.815102,37.0676,-1.911717,-35.50692,990.3875
0.841022968,0.03268075,-0.1110241,0.08163363,-0.5301045,0.03902594,0.8124456,37.0676,-1.911717,-35.50692,990.3875
0.845942021,-0.09086505,0.1259592,-0.04025367,-0.5379245,0.04810724,0.8186274,37.0676,-1.911717,-35.50692,990.3875
0.850859642,-0.09084684,0.0667215,0.08162674,-0.539889,0.04039062,0.8130553,37.0676,-1.911717,-35.50692,990.3875
0.855778218,0.09461465,-0.1110194,0.02065748,-0.5384206,0.04184801,0.8140609,36.69607,-2.214085,-35.51709,990.3875
0.860696316,-0.1526701,-0.05173523,0.02064452,-0.5378915,0.03888258,0.8163893,36.69607,-2.214085,-35.51709,990.3875
0.865614891,-0.02899063,0.007530318,-0.04028643,-0.5413151,0.04222725,0.8184667,36.69607,-2.214085,-35.51709,990.3875
0.870532990,-0.0907739,-0.3478726,0.020676,-0.536938,0.0432782,0.8165224,36.69607,-2.214085,-35.51709,990.3875
0.875451565,0.03286664,0.06688401,-0.04023585,-0.5340102,0.03945982,0.8134626,36.69607,-2.214085,-35.51709,990.3875
0.880369663,-0.02887779,-0.1108013,-0.04028713,-0.5379321,0.03944255,0.8125232,36.69607,-2.214085,-35.51709,990.3875
0.885288239,-0.09066112,0.007752955,-0.04024268,-0.5359536,0.04134644,0.8159668,36.69607,-2.214085,-35.51709,990.3875
0.890205860,0.1565435,0.00776663,-0.1621108,-0.5403214,0.04365301,0.820932,36.69607,-2.214085,-35.51709,990.3875
0.895124912,-0.02886216,0.1262092,-0.04017301,-0.5418103,0.04416343,0.8190184,36.69607,-2.214085,-35.51709,990.3875
0.902502060,0.03298591,0.06685735,-0.04013517,-0.5398721,0.03987599,0.8144952,36.69607,-2.214085,-35.51709,990.3875
0.907419682,-0.09061832,-0.05159498,0.1427015,-0.5404302,0.04386161,0.8097723,36.37902,-2.196562,-35.9647,990.3875
0.912338734,-0.02877939,0.06694075,-0.1620356,-0.5359593,0.04569693,0.8180485,36.37902,-2.196562,-35.9647,990.3875
0.917256355,-0.02874189,0.0668987,0.02083935,-0.5344656,0.04180179,0.8183969,36.37902,-2.196562,-35.9647,990.3875
0.922174931,-0.02874324,0.1261083,-0.04011087,-0.5389076,0.04232193,0.8145657,36.37902,-2.196562,-35.9647,990.3892
0.927093029,-0.0287252,0.06679597,0.2036629,-0.5393859,0.04374349,0.8165574,36.37902,-2.196562,-35.9647,990.3892
0.932011605,0.2185181,0.06671675,0.1426744,-0.5364711,0.04139643,0.8130594,36.37902,-2.196562,-35.9647,990.3892
0.936929703,-0.2141519,0.1259265,-0.1011638,-0.5355188,0.04434793,0.8121752,36.37902,-2.196562,-35.9647,990.3892
0.941848278,0.0330915,-0.1110476,0.2035854,-0.535978,0.04235755,0.8140572,36.37902,-2.196562,-35.9647,990.3892
0.946766377,-0.02873075,0.007432449,-0.04019528,-0.5340139,0.04428866,0.8160452,36.37902,-2.196562,-35.9647,990.3892
0.951684952,-0.0287127,-0.051768,-0.04017005,-0.5354818,0.04524114,0.8165734,36.37902,-2.196562,-35.9647,990.3892
0.956602574,-0.02869467,-0.2294718,0.08172946,-0.5349265,0.03595741,0.8177277,36.67791,-1.147621,-36.31528,990.3892
0.961520672,-0.02863777,0.007548627,0.1426535,-0.5339968,0.04039838,0.8154348,36.67791,-1.147621,-36.31528,990.3892
0.966439247,-0.02863919,0.1852243,-0.0402092,-0.5389106,0.046185,0.8166317,36.67791,-1.147621,-36.31528,990.3892
0.971357346,0.156725,0.007483304,-0.04020306,-0.5378908,0.03791681,0.8158727,36.67791,-1.147621,-36.31528,990.3892
0.976275921,0.09486387,0.06676738,0.02077846,-0.5363818,0.03881423,0.8207445,36.67791,-1.147621,-36.31528,990.3892
0.981194020,0.09480432,0.06668828,0.08168342,-0.5364373,0.04036718,0.8159394,36.67791,-1.147621,-36.31528,990.3892
0.988571644,0.03289417,-0.1703067,0.08162557,-0.5369176,0.04131038,0.8174301,36.67791,-1.147621,-36.31528,990.3892
0.993489743,0.03287354,0.007406342,0.02063717,-0.5373895,0.03741568,0.8168235,36.67791,-1.147621,-36.31528,990.3892
0.998408318,0.09463494,-0.1110644,-0.04029378,-0.5394056,0.04474552,0.815133,36.67791,-1.147621,-36.31528,990.3892
1.003326416,0.1563963,-0.1109946,-0.1621236,-0.5365216,0.04872584,0.8123237,37.06209,-1.896835,-35.95386,990.3892
1.008244514,0.1562981,0.1851659,0.2035245,-0.5398805,0.04471389,0.8165926,37.06209,-1.896835,-35.95386,990.3892
1.013163090,-0.02916567,-0.1111156,0.08157983,-0.538422,0.04377955,0.815094,37.06209,-1.896835,-35.95386,990.3892
1.018085480,0.1562376,0.2443338,0.02061057,-0.5378863,0.04128339,0.8184083,37.06209,-1.896835,-35.95386,990.3892
1.022999287,0.03255593,-0.170395,0.1424528,-0.5403382,0.04079199,0.8174416,37.06209,-1.896835,-35.95386,990.3892
1.027917385,-0.02926596,0.1850729,0.1423824,-0.542282,0.04605426,0.8219961,37.06209,-1.896835,-35.95386,990.3892
1.032835960,0.1561375,0.1257421,0.02045698,-0.5384268,0.04378862,0.8146088,37.06209,-1.896835,-35.95386,990.3892
1.037754059,-0.0911471,0.1257003,-0.1014301,-0.5383971,0.04517831,0.8185374,37.06209,-1.896835,-35.95386,990.3892
1.042672634,0.09429511,0.1256586,0.02048869,-0.5393527,0.04030435,0.8179035,37.06209,-1.896835,-35.95386,990.3936
1.047590733,0.09423592,0.1256356,0.02045669,-0.5364516,0.04377004,0.8165342,37.06209,-1.896835,-35.95386,990.3936
1.052509308,-0.02944566,-0.1113754,0.2032361,-0.5393772,0.0446911,0.8180443,37.0676,-1.911717,-35.50692,990.3936
1.059886456,0.03224765,-0.1113076,0.08130436,-0.5335225,0.04139578,0.8144918,37.0676,-1.911717,-35.50692,990.3936
1.064804554,-0.02957407,-0.05206048,-0.04065926,-0.5355965,0.0440147,0.803911,37.0676,-1.911717,-35.50692,990.3936
1.069723129,0.2175921,0.007279767,0.1421968,-0.5398603,0.04612173,0.8195507,37.0676,-1.911717,-35.50692,990.3936
1.074640751,-0.02965336,-0.05193933,0.1421267,-0.5364917,0.04673989,0.814202,37.0676,-1.911717,-35.50692,990.3936
1.079559803,0.03214736,0.1850253,0.02018225,-0.5393386,0.0436528,0.8214094,37.0676,-1.911717,-35.50692,990.3936
1.084477425,-0.1532384,-0.05193006,0.08108756,-0.5354967,0.04623412,0.8156342,37.0676,-1.911717,-35.50692,990.3936
1.089398861,-0.02963627,0.007317062,0.2028918,-0.5393636,0.04225402,0.817966,37.0676,-1.911717,-35.50692,990.3936
1.094314098,0.155845,0.1257599,-0.04092684,-0.5388725,0.0427368,0.818463,37.0676,-1.911717,-35.50692,990.3936
1.099232674,-0.02965731,-0.05198092,0.02001689,-0.5315868,0.0433813,0.8135685,37.0676,-1.911717,-35.50692,990.3936
1.104150772,-0.09144018,-0.1112185,-0.0409137,-0.5393658,0.04515132,0.8195155,37.06209,-1.896835,-35.95386,990.3936
1.109069347,-0.09140215,0.007242925,-0.04088801,-0.5364368,0.04277707,0.8174732,37.06209,-1.896835,-35.95386,990.3936
1.113987446,0.0940597,-0.1112463,0.02009398,-0.5398777,0.04422648,0.8165769,37.06209,-1.896835,-35.95386,990.3936
1.118906021,-0.2149679,0.1256627,0.02010052,-0.5408713,0.04280072,0.8141116,37.06209,-1.896835,-35.95386,990.3936
1.123823643,-0.09119108,0.007154888,-0.2235841,-0.5349961,0.04669875,0.8171015,37.06209,-1.896835,-35.95386,990.3936
1.131201267,-0.09104694,0.06634404,-0.2233926,-0.5330081,0.04520884,0.8194652,37.06209,-1.896835,-35.95386,990.3936
1.136119843,-0.1528106,0.06630245,0.02049631,-0.5379385,0.0447588,0.8151214,37.06209,-1.896835,-35.95386,990.3936
1.141037464,-0.2144772,-0.05224254,-0.1623089,-0.5399001,0.04571594,0.8151682,37.06209,-1.896835,-35.95386,990.3936
1.145956516,-0.09075899,-0.1706201,-0.101308,-0.5359434,0.04036254,0.8164207,37.06209,-1.896835,-35.95386,990.3936
1.150874138,-0.2142467,-0.05210263,-0.04032639,-0.5359603,0.04087716,0.8149807,37.06008,-1.532317,-35.87877,990.3936
1.155792713,-0.1523494,-0.1113029,-0.1621754,-0.5422553,0.04214584,0.8223561,37.06008,-1.532317,-35.87877,990.3936
1.160710812,-0.09047169,0.06646609,-0.04019917,-0.5349573,0.04228478,0.8184164,37.06008,-1.532317,-35.87877,990.3936
1.165629387,-0.2139789,-0.0520789,-0.04019304,-0.5344847,0.04521371,0.8185064,37.06008,-1.532317,-35.87877,990.3936
1.170547485,-0.09026098,0.00718687,-0.04011035,-0.538388,0.03937464,0.8159236,37.06008,-1.532317,-35.87877,990.3936
1.175465584,-0.09018487,0.1848628,-0.100984,-0.5349939,0.04380146,0.8155521,37.06008,-1.532317,-35.87877,990.3936
1.180384159,-0.1519296,0.1848211,0.0209346,-0.5393725,0.04468204,0.8185295,37.06008,-1.532317,-35.87877,990.3936
1.185301781,-0.02823126,-0.1706559,-0.1008762,-0.5389358,0.0390007,0.8096041,37.06008,-1.532317,-35.87877,990.3936
1.190220356,-0.2753806,0.1255793,-0.2227063,-0.5373552,0.02963514,0.8156028,37.06008,-1.532317,-35.87877,990.3936
1.195138454,-0.1516823,-0.170609,0.2039553,-0.5345386,0.05399631,0.8183029,37.06008,-1.532317,-35.87877,990.3936
1.200057030,-0.1515287,0.06639308,-0.100782,-0.5379345,0.0457155,0.8161231,37.0731,-1.926599,-35.05998,990.3936
1.207434177,-0.02780241,-0.1706016,0.02122558,-0.5393846,0.03265078,0.8098898,37.0731,-1.926599,-35.05998,990.3918
1.212353230,0.09581797,-0.2297275,0.02115481,-0.5267708,0.05755159,0.8144689,37.0731,-1.926599,-35.05998,990.3918
1.217270851,-0.0277869,0.2442811,-0.1006945,-0.5340111,0.04380124,0.8160295,37.0731,-1.926599,-35.05998,990.3918
1.222188950,0.03399319,0.007214219,-0.1006695,-0.5437624,0.0325656,0.8123506,37.0731,-1.926599,-35.05998,990.3918
1.227107525,0.03403009,-0.05200465,-0.03968827,-0.5339669,0.03841243,0.817313,37.0731,-1.926599,-35.05998,990.3918
1.232025623,0.09581019,0.00726112,0.02129296,-0.5413514,0.04036828,0.813552,37.0731,-1.926599,-35.05998,990.3918
1.236944199,-0.02783354,0.0664523,0.204091,-0.5389071,0.04473181,0.8160996,37.0731,-1.926599,-35.05998,990.3918
1.241862297,-0.02777723,0.06641049,0.1430639,-0.5325487,0.04382358,0.8155327,37.0731,-1.926599,-35.05998,990.3875
1.246780872,-0.02777918,-0.1113117,-0.1007362,-0.5354694,0.04135993,0.8154777,37.0731,-1.926599,-35.05998,990.3875
1.251698494,0.03402037,0.007224278,0.2039553,-0.5378288,0.04020879,0.8237143,37.43595,-1.900005,-35.95305,990.3875
1.256617069,0.03397957,0.184863,-0.03986395,-0.5398897,0.04135638,0.8135717,37.43595,-1.900005,-35.95305,990.3875
1.261535168,0.1575223,0.1255325,-0.0398772,-0.5354798,0.04571949,0.8170741,37.43595,-1.900005,-35.95305,990.3875
1.266453743,-0.1515452,0.06623927,0.02110414,-0.535928,0.04177944,0.8188937,37.43595,-1.900005,-35.95305,990.3875
1.271371841,-0.02786644,0.1253749,-0.1007643,-0.5389063,0.04376605,0.8155831,37.43595,-1.900005,-35.95305,990.3875
1.276290417,0.0957346,-0.05236573,0.2039273,-0.5349832,0.04522742,0.8175399,37.43595,-1.900005,-35.95305,990.3875
1.283667564,0.09568319,0.1845413,-0.1617154,-0.5389016,0.04375698,0.8160683,37.43595,-1.900005,-35.95305,990.3875
1.288585663,0.1574246,0.125211,-0.03977783,-0.5379072,0.04084132,0.8159666,37.43595,-1.900005,-35.95305,990.3875
1.293504238,-0.02807874,0.06588068,0.08210229,-0.5359272,0.04081368,0.8183772,37.43595,-1.900005,-35.95305,990.3875
1.298422337,0.1572657,-0.05260814,0.3257418,-0.543817,0.04231396,0.8126636,37.43595,-1.900005,-35.95305,990.3875
1.303340912,0.1571863,0.1251054,0.08178864,-0.5364196,0.03888679,0.8168628,36.68866,-2.553092,-36.35836,990.3875
1.308259010,0.03352336,0.1250454,0.02080011,-0.5379236,0.04376584,0.8160605,36.68866,-2.553092,-36.35836,990.3875
1.313177586,0.03352171,-0.05269494,0.02076788,-0.5354783,0.04378796,0.8160412,36.68866,-2.553092,-36.35836,990.3875
1.318095207,0.0953021,0.006552638,-0.04014403,-0.535533,0.04437514,0.8107195,36.68866,-2.553092,-36.35836,990.3875
1.323013783,-0.02836073,0.006567104,0.02083749,-0.5349573,0.04228478,0.8184164,36.68866,-2.553092,-36.35836,990.3918
1.327931881,-0.02834293,-0.05267007,0.1426412,-0.5369397,0.0394242,0.8139711,36.68866,-2.553092,-36.35836,990.3918
1.332850456,0.2188225,0.006596035,0.0816145,-0.5379494,0.04670848,0.815184,36.68866,-2.553092,-36.35836,990.3918
1.337768555,0.1568642,-0.2303031,0.08158238,-0.5374203,0.04374305,0.8175123,36.68866,-2.553092,-36.35836,990.3918
1.342687130,-0.09038196,0.1252398,0.08155026,-0.5393708,0.03937486,0.8154461,36.68866,-2.553092,-36.35836,990.3918
1.347605229,-0.02856254,0.006769511,-0.1012933,-0.5330663,0.04724921,0.8146757,36.68866,-2.553092,-36.35836,990.3918
1.352523804,-0.02854462,-0.111738,0.02062551,-0.5324818,0.04273085,0.8218091,37.807,-1.53653,-35.94101,990.3918
1.357441425,-0.0285267,0.006742388,-0.1012617,-0.5379291,0.04474066,0.8160918,37.807,-1.53653,-35.94101,990.3918
1.364819050,-0.1521027,0.184398,0.08162592,-0.5384002,0.0398802,0.8149688,37.807,-1.53653,-35.94101,990.3918
1.369737625,0.03333894,-0.1710229,0.08157465,-0.5369021,0.0427273,0.8199031,37.807,-1.53653,-35.94101,990.3918
1.374655724,0.03333741,-0.05252383,0.08156168,-0.5374409,0.04908651,0.8186548,37.807,-1.53653,-35.94101,990.3918
1.379574299,0.09513737,-0.1709756,-0.0403064,-0.5364942,0.04385167,0.8121672,37.807,-1.53653,-35.94101,990.3918
1.384491921,0.03327616,0.1844928,-0.2230925,-0.5345652,0.04536789,0.810258,37.807,-1.53653,-35.94101,990.3918
1.389410496,-0.09032831,0.006733573,0.02075796,-0.538926,0.04476809,0.8141587,37.807,-1.53653,-35.94101,990.3918
1.394328594,0.1569149,-0.05250372,-0.1010911,-0.5344731,0.04229827,0.8179273,37.807,-1.53653,-35.94101,990.3918
1.399247170,-0.02854922,-0.1116665,-0.04009043,-0.5335193,0.04331825,0.8160101,37.43865,-1.548242,-35.49487,990.3918
1.404165268,0.09503278,-0.05236335,-0.04004611,-0.5379925,0.04438023,0.8092833,37.43865,-1.548242,-35.49487,990.3936
1.409083366,-0.09039252,0.0660797,-0.1009198,-0.5340111,0.04380124,0.8160295,37.43865,-1.548242,-35.49487,990.3936
1.414001942,-0.1521178,0.006842405,-0.03986183,-0.5393536,0.04464576,0.8204703,37.43865,-1.548242,-35.49487,990.3936
1.418919563,0.1569657,0.006856758,-0.03983677,-0.5388882,0.04469553,0.8180404,37.43865,-1.548242,-35.49487,990.3936
1.423838139,-0.09026115,-0.170828,-0.03986918,-0.5344594,0.03986119,0.8178491,37.43865,-1.548242,-35.49487,990.3936
1.428756237,-0.09020444,-0.1707393,-0.1616227,-0.5354626,0.04182921,0.8164638,37.43865,-1.548242,-35.49487,990.3936
1.433674812,-0.1519687,0.007029781,0.02125194,-0.5354893,0.04573763,0.8161038,37.43865,-1.548242,-35.49487,990.3936
1.441052437,0.09534154,0.0663307,0.1431636,-0.5403558,0.04227238,0.8165182,37.43865,-1.548242,-35.49487,990.3936
1.445971012,-0.02826304,0.1847178,-0.1615546,-0.5369027,0.04031741,0.8183693,37.43865,-1.548242,-35.49487,990.3953
1.450888634,-0.0282065,0.006921289,0.02132002,-0.536925,0.04180687,0.8169606,37.44379,-2.220424,-35.51547,990.3953
1.455806732,-0.2135738,-0.05231611,-0.2224419,-0.5383778,0.03839074,0.8163775,37.44379,-2.220424,-35.51547,990.3953
1.460725308,0.03368856,-0.111479,0.02136981,-0.5388706,0.04321515,0.8189638,37.44379,-2.220424,-35.51547,990.3953
1.465643406,-0.1516982,0.007094199,-0.1613785,-0.5374675,0.04383375,0.8126602,37.44379,-2.220424,-35.51547,990.3953
1.470561981,0.09560295,-0.1113763,0.2043266,-0.537889,0.04177081,0.8184239,37.44379,-2.220424,-35.51547,990.3953
1.475480080,-0.1516242,0.3032318,-0.222266,-0.5369543,0.0462027,0.8166163,37.44379,-2.220424,-35.51547,990.3953
1.480398655,-0.02792598,0.006969319,-0.1002904,-0.5310306,0.03891733,0.8177907,37.44379,-2.220424,-35.51547,990.3953
1.485322476,-0.02792787,0.007002206,-0.1002465,-0.5389178,0.04330584,0.8141118,37.44379,-2.220424,-35.51547,990.3953
1.490234852,0.03391053,0.006979264,0.02165245,-0.536499,0.04386074,0.8116821,37.44379,-2.220424,-35.51547,990.3953
1.495152950,0.03388919,-0.1114726,0.02161969,-0.5354681,0.04280406,0.8164951,37.44379,-2.220424,-35.51547,990.3953
1.500071526,-0.213338,-0.2891203,-0.2221042,-0.5360098,0.04386516,0.8116782,37.06993,-2.217255,-35.51628,990.3953
1.504989624,0.03398246,-0.05209958,-0.03917235,-0.5384206,0.04184801,0.8140609,37.06993,-2.217255,-35.51628,990.3953
1.512372017,-0.08961363,0.007145281,0.08277712,-0.5374663,0.04527785,0.8136775,37.06993,-2.217255,-35.51628,990.3953
1.517285347,-0.2131797,-0.1704839,0.1437197,-0.5364062,0.03982535,0.8188349,37.06993,-2.217255,-35.51628,990.3953
1.522203446,0.03417949,0.0664809,-0.1001,-0.539373,0.04227216,0.8169956,37.06993,-2.217255,-35.51628,990.3953
1.527122021,0.09592067,-0.1112414,-0.03908085,-0.5384408,0.04044017,0.8111028,37.06993,-2.217255,-35.51628,990.3953
1.532040119,0.03409778,-0.1704045,-0.03905632,-0.5413021,0.04075593,0.8189049,37.06993,-2.217255,-35.51628,990.3953
1.536958695,-0.02770566,0.1258304,0.02186707,-0.5374519,0.041875,0.8130829,37.06993,-2.217255,-35.51628,990.3953
1.541876793,0.03409377,0.0073226,0.08275218,-0.5354208,0.04271337,0.8213471,37.06993,-2.217255,-35.51628,990.3953
1.546795368,-0.08951116,0.007280784,-0.03913581,-0.5384064,0.0418208,0.8155165,36.67791,-1.147621,-36.31528,990.3953
1.551712990,-0.08945492,-0.05195685,-0.1000867,-0.5339482,0.04175179,0.8213042,36.67791,-1.147621,-36.31528,990.3953
1.556631565,0.1577683,-0.1111758,0.02183135,-0.5394022,0.04329235,0.8146009,36.67791,-1.147621,-36.31528,990.3953
1.561549664,0.09592604,-0.05187299,-0.1000566,-0.5394049,0.04377977,0.8146166,36.67791,-1.147621,-36.31528,990.3953
1.566471100,-0.08957749,-0.1702878,0.08281764,-0.5413347,0.0432293,0.8170424,36.67791,-1.147621,-36.31528,990.397
1.571386337,0.03406228,0.007462397,-0.09998839,-0.5359553,0.04665362,0.8190501,36.67791,-1.147621,-36.31528,990.397
1.576304913,0.09586178,0.007476298,-0.03902673,-0.5384395,0.04188429,0.8121201,36.67791,-1.147621,-36.31528,990.397
1.581223011,-0.02778195,0.06674184,-0.03902135,-0.535447,0.03987048,0.8168863,36.67791,-1.147621,-36.31528,990.397
1.586141586,0.03405633,0.06675574,-0.09995311,-0.5388885,0.03891001,0.8144562,36.67791,-1.147621,-36.31528,990.397
1.591059685,-0.1513694,-0.05175229,-0.03897234,-0.5379149,0.04471345,0.8175474,36.67791,-1.147621,-36.31528,990.397
1.598436833,0.03415815,0.06681835,-0.03899301,-0.5389016,0.04375698,0.8160683,37.44379,-2.220424,-35.51547,990.397
1.603355408,-0.02764541,0.007543315,0.08288664,-0.5393236,0.03928416,0.8202981,37.44379,-2.220424,-35.51547,990.397
1.608273506,-0.08939072,0.06680875,-0.03902056,-0.5369367,0.0447223,0.8175397,37.44379,-2.220424,-35.51547,990.397
1.613192082,0.03422955,-0.1109695,0.02188364,-0.5384153,0.04424883,0.81608,37.44379,-2.220424,-35.51547,990.397
1.618109703,0.2195737,-0.05164809,-0.1608841,-0.5354323,0.04225314,0.8198758,37.44379,-2.220424,-35.51547,990.397
1.623028278,0.09589102,-0.2292961,0.08292722,-0.5388837,0.03890094,0.8149413,37.44379,-2.220424,-35.51547,990.397
1.627946377,-0.08951541,0.007798613,-0.03896089,-0.5389606,0.04676311,0.8117954,37.44379,-2.220424,-35.51547,990.397
1.632864952,0.09592586,-0.1106724,-0.03895557,-0.5354681,0.04280406,0.8164951,37.44379,-2.220424,-35.51547,990.397
1.637783051,-0.2131224,0.007844609,-0.03891194,-0.5408136,0.03835047,0.8173672,37.44379,-2.220424,-35.51547,990.397
1.642701149,0.1577815,0.06710993,-0.0388875,-0.5364577,0.04233499,0.8150315,37.44379,-2.220424,-35.51547,990.397
1.647619724,-0.08950403,0.06710496,-0.2216745,-0.5389263,0.03898256,0.8105745,36.69057,-2.199203,-35.96403,990.397
1.652537346,-0.1512881,0.1262773,-0.03874295,-0.5364469,0.04376097,0.8170193,36.69057,-2.199203,-35.96403,990.397
1.657456398,-0.08939166,-0.1699115,-0.09961748,-0.5374519,0.041875,0.8130829,36.69057,-2.199203,-35.96403,990.397
1.662374020,-0.08939378,-0.05141314,0.1441745,-0.5394083,0.04523294,0.8151487,36.69057,-2.199203,-35.96403,990.397
1.669752121,0.09607544,0.007793866,0.1440961,-0.539841,0.03933416,0.8173907,36.69057,-2.199203,-35.96403,990.397
1.674670220,-0.08933111,0.1262736,0.2049236,-0.5355109,0.04626133,0.8141786,36.69057,-2.199203,-35.96403,990.397
1.679587841,-0.08929438,-0.2292039,0.1438385,-0.5398474,0.0446504,0.819989,36.69057,-2.199203,-35.96403,990.397
1.684506416,0.03436468,0.06703082,-0.03898665,-0.5369359,0.04375655,0.8170232,36.69057,-2.199203,-35.96403,990.397
1.689424515,-0.1510419,0.06702596,-0.0389813,-0.5363594,0.03732477,0.8221532,36.69057,-2.199203,-35.96403,990.397
1.694343090,0.09616175,-0.1107525,0.08291748,-0.535025,0.04434329,0.8126565,36.69057,-2.199203,-35.96403,990.397
1.699261189,-0.02744336,-0.05143122,-0.09998433,-0.5349752,0.04714082,0.8195433,37.06209,-1.896835,-35.95386,990.397
1.704179764,-0.02740669,0.007796917,-0.03898438,-0.5373979,0.04225358,0.8189209,37.06209,-1.896835,-35.95386,990.397
1.709097862,0.03437317,-0.05140376,0.02195814,-0.5344405,0.03982491,0.8197899,37.06209,-1.896835,-35.95386,990.397
1.714016438,0.03439044,0.06707591,0.02196351,-0.5369312,0.04374748,0.8175084,37.06209,-1.896835,-35.95386,990.397
1.718934059,-0.02745209,-0.1698612,-0.0389874,-0.5325263,0.04233411,0.8169414,37.06209,-1.896835,-35.95386,990.397
1.723852635,-0.08919752,-0.0513442,0.08289225,-0.5388895,0.04325143,0.817023,37.06209,-1.896835,-35.95386,990.397
1.731230259,-0.151012,-0.05137019,0.02191529,-0.5379092,0.04036297,0.8154657,37.06209,-1.896835,-35.95386,990.4014
1.736147881,-0.02731413,-0.05130069,-0.03901647,-0.5325725,0.04724457,0.8151571,37.06209,-1.896835,-35.95386,990.4014
1.741066933,-0.2744834,-0.05132431,0.08284403,-0.5379298,0.04570643,0.8166084,37.06209,-1.896835,-35.95386,990.4014
1.745984554,0.03467691,0.1856028,0.08281112,-0.5315338,0.03894011,0.816339,36.68823,-1.893666,-35.95467,990.4014
1.750903130,-0.08888958,0.06703884,0.02187937,-0.5383424,0.04459112,0.823859,36.68823,-1.893666,-35.95467,990.4014
1.755821228,0.220096,0.007782225,-0.1000469,-0.5427469,0.03925319,0.8203252,36.68823,-1.893666,-35.95467,990.4014
1.760739803,-0.3979599,-0.05141845,0.1437262,-0.5344953,0.04041209,0.8144683,36.68823,-1.893666,-35.95467,990.4014
1.765657902,-0.02699824,-0.110675,0.02181906,-0.5413613,0.0471377,0.8166824,36.68823,-1.893666,-35.95467,990.4014
1.770576477,0.03478139,0.06709366,0.08270419,-0.5369275,0.03891864,0.8149258,36.68823,-1.893666,-35.95467,990.4014
1.775494576,0.03475957,-0.1106848,0.08259482,-0.5374106,0.04034926,0.8164324,36.68823,-1.893666,-35.95467,990.4014
1.780413151,-0.1507055,-0.1105966,0.02164408,-0.5417553,0.0402006,0.8222896,36.68823,-1.893666,-35.95467,990.4014
1.785333634,-0.0270273,-0.1105644,-0.03930666,-0.5389585,0.04724146,0.8122962,36.68823,-1.893666,-35.95467,990.4014
1.790249348,-0.02699093,0.007952536,0.02167434,-0.5349213,0.03835823,0.8197468,36.68823,-1.893666,-35.95467,990.4014
1.795167446,0.09655128,0.06714327,0.08263615,-0.5384235,0.04571108,0.816127,36.69607,-2.214085,-35.51709,990.4014
1.800086022,0.220113,-0.1697753,-0.03925176,-0.5408497,0.04227702,0.8160368,36.69607,-2.214085,-35.51709,990.4014
1.807463646,0.03467591,-0.05124226,0.02164582,-0.5354876,0.04043045,0.8130204,36.69607,-2.214085,-35.51709,990.3997
1.812381268,-0.1507115,0.06723741,0.1435256,-0.5408457,0.04323373,0.8170385,36.69607,-2.214085,-35.51709,990.3997
1.817299843,-0.08887354,-0.0512522,-0.03939508,-0.5324328,0.03733296,0.8235778,36.69607,-2.214085,-35.51709,990.3997
1.822217941,0.09658671,0.007975818,-0.1002883,-0.5384233,0.04233542,0.8140766,36.69607,-2.214085,-35.51709,990.3997
1.827136517,0.09650665,-0.1104394,0.1435424,-0.5408584,0.0413294,0.8145499,36.69607,-2.214085,-35.51709,990.3997
1.832054615,-0.2125225,-0.11037,-0.03934009,-0.5413835,0.04525151,0.8132234,36.69607,-2.214085,-35.51709,990.3997
1.836973191,-0.08878605,0.0673798,-0.1611514,-0.5359487,0.03796172,0.8144016,36.69607,-2.214085,-35.51709,990.3997
1.841891289,-0.02696764,-0.2288277,0.1436356,-0.5383989,0.04132431,0.8159862,36.69607,-2.214085,-35.51709,990.3997
1.846809864,0.03485078,0.06740681,-0.1001841,-0.5393439,0.04125197,0.8193904,36.69888,-2.58073,-35.52833,990.3997
1.851727486,0.09657209,-0.1102974,0.02175313,-0.5374922,0.0482205,0.8128011,36.69888,-2.58073,-35.52833,990.3997
1.856646061,-0.02703326,0.06743371,0.08269577,-0.5388947,0.04085061,0.8150039,36.69888,-2.58073,-35.52833,990.3997
1.864023686,0.03481305,-0.05104008,-0.1000979,-0.536928,0.04566994,0.8190266,36.69888,-2.58073,-35.52833,990.3997
1.868942738,0.1583747,-0.05098934,0.08273815,-0.5408646,0.04327,0.8150977,36.69888,-2.58073,-35.52833,990.3997
1.873860359,0.03471111,-0.1693862,0.08268617,-0.5350149,0.04335939,0.8131104,36.69888,-2.58073,-35.52833,990.3997
1.878777981,0.09652958,-0.05077653,0.02173537,-0.5379046,0.04372955,0.8180014,36.69888,-2.58073,-35.52833,990.3997
1.883696556,-0.02715341,-0.2284624,-0.03919627,-0.536409,0.04031276,0.8188506,36.69888,-2.58073,-35.52833,990.3997
1.888614655,-0.02713631,0.06780903,-0.2220214,-0.5354646,0.04135087,0.8159629,36.69888,-2.58073,-35.52833,990.3997
1.893533230,0.1582851,-0.109914,0.02182839,-0.5388887,0.04228565,0.8165066,37.0676,-1.911717,-35.50692,990.3997
1.898451328,-0.02721868,0.008583831,0.02177639,-0.5379499,0.0442986,0.8136501,37.0676,-1.911717,-35.50692,990.3997
1.903369904,-0.08896422,0.008559759,0.08268071,-0.5364447,0.04086367,0.8154697,37.0676,-1.911717,-35.50692,990.3997
1.908288002,-0.02706804,-0.1099861,-0.03922638,-0.5374133,0.04083668,0.816448,37.0676,-1.911717,-35.50692,990.3997
1.913205624,-0.150654,0.06778213,-0.100158,-0.5359733,0.04234848,0.8145425,37.0676,-1.911717,-35.50692,990.3997
1.918124199,0.03480621,-0.1099781,0.1436343,-0.5368954,0.04319657,0.8208892,37.0676,-1.911717,-35.50692,990.3997
1.923042298,0.09662462,0.008519752,-0.03924821,-0.5344244,0.04027605,0.8217463,37.0676,-1.911717,-35.50692,990.3997
1.927960873,-0.08884047,0.06778473,0.02173273,-0.5379589,0.04672661,0.8142136,37.0676,-1.911717,-35.50692,990.404
1.935338021,-0.150597,0.06781389,-0.1001429,-0.539881,0.04230401,0.8150586,37.0676,-1.911717,-35.50692,990.404
1.940256596,0.09672284,-0.1099092,0.0217752,-0.5379338,0.04474973,0.8156066,37.0676,-1.911717,-35.50692,990.404
1.945174694,-0.08874231,0.06784033,0.02174238,-0.5413514,0.04036828,0.813552,37.80981,-1.903174,-35.95224,990.404
1.950093270,-0.0268851,-0.05066838,-0.03922758,-0.5373952,0.04176616,0.8189053,37.80981,-1.903174,-35.95224,990.404
1.955015183,0.09671529,0.1862769,-0.1001209,-0.5374548,0.04573807,0.8151488,37.80981,-1.903174,-35.95224,990.404
1.959929466,0.09665457,-0.1099679,0.02175883,-0.5349974,0.04525463,0.8160843,37.80981,-1.903174,-35.95224,990.404
1.964848042,-0.02697023,0.1862849,-0.03913456,-0.5369692,0.04719567,0.8156771,37.80981,-1.903174,-35.95224,990.404
1.969766617,0.03480933,0.008505965,0.02182717,-0.54083,0.04127498,0.8174611,37.80981,-1.903174,-35.95224,990.404
1.974684715,0.03480686,-0.05073246,0.02185176,-0.5418745,0.04476875,0.8127264,37.80981,-1.903174,-35.95224,990.404
1.979602337,-0.08881795,-0.1691667,-0.03913741,-0.5364693,0.04525042,0.8156106,37.80981,-1.903174,-35.95224,990.404
1.984520912,0.09660339,-0.05066883,-0.1000883,-0.5399086,0.04139266,0.811631,37.80981,-1.903174,-35.95224,990.404
1.989439011,0.09658153,0.1270435,0.02182975,-0.5349584,0.03746502,0.8153486,37.80981,-1.903174,-35.95224,990.404
1.994357586,0.03469997,-0.1099497,-0.03914026,-0.5344907,0.04377868,0.8170038,37.05929,-1.530191,-35.94262,990.404
1.999275684,-0.02712328,-0.1098622,-0.03911567,-0.5388842,0.04565223,0.8190421,37.05929,-1.530191,-35.94262,990.404
2.004194260,0.03467579,-0.05056011,0.0218269,-0.5374292,0.04617107,0.8180758,37.05929,-1.530191,-35.94262,990.404
2.009112358,0.1582764,-0.1097428,0.02185149,-0.5359837,0.04670804,0.8161389,37.05929,-1.530191,-35.94262,990.404
2.014030933,-0.1507527,0.00877358,-0.03906111,-0.5388542,0.04029064,0.8188699,37.05929,-1.530191,-35.94262,990.404
2.018948555,0.03466872,0.1864486,-0.03907486,-0.5359402,0.042285,0.8179389,37.05929,-1.530191,-35.94262,990.404
2.026326656,-0.1507295,0.1271144,0.02191823,-0.5325825,0.04485283,0.8126528,37.05929,-1.530191,-35.94262,990.404
2.031244755,0.09651284,-0.05062735,-0.03907099,-0.5418093,0.03982202,0.8164515,37.05929,-1.530191,-35.94262,990.404
2.036162376,-0.02709251,-0.2282574,0.02189068,-0.5349979,0.04284476,0.8145504,37.05929,-1.530191,-35.94262,990.404
2.041081429,0.03472596,0.008725097,0.08279494,-0.5359422,0.04180665,0.8174381,37.44379,-2.220424,-35.51547,990.404
2.045999050,0.09654444,0.1271484,0.0828195,-0.5379562,0.0462392,0.814198,37.44379,-2.220424,-35.51547,990.404
2.050917625,0.09646437,-0.05057469,0.08280578,-0.536976,0.0467264,0.8146911,37.44379,-2.220424,-35.51547,990.4023
2.055835724,-0.0888647,0.008690177,0.08275376,-0.5374763,0.04288612,0.8111733,37.44379,-2.220424,-35.51547,990.4023
2.060754299,0.0965761,-0.1097627,0.02180289,-0.5418896,0.04913737,0.8138376,37.44379,-2.220424,-35.51547,990.4023
2.065672398,-0.0270487,0.008735156,-0.2219211,-0.5350174,0.04047115,0.8110757,37.44379,-2.220424,-35.51547,990.4023
2.070590973,0.03476977,0.06794408,0.0218903,-0.5364415,0.04278614,0.816988,37.44379,-2.220424,-35.51547,990.4023
2.075509071,0.03476735,-0.1097604,0.02187652,-0.5384415,0.04140594,0.8116193,37.44379,-2.220424,-35.51547,990.4023
2.080427647,-0.02705595,0.06793312,-0.03905524,-0.535492,0.04622505,0.8161194,37.44379,-2.220424,-35.51547,990.4023
2.087804794,0.09653365,0.00865469,-0.03915247,-0.5398818,0.04326978,0.8155751,37.44379,-2.220424,-35.51547,990.4023
2.092722893,0.1583327,0.06786361,-0.1000267,-0.5383663,0.03885094,0.8178487,36.68823,-1.893666,-35.95467,990.4005
2.097641468,-0.0271323,0.06785819,-0.1000213,-0.5379351,0.04330563,0.8145893,36.68823,-1.893666,-35.95467,990.4005
2.102559090,0.03472502,-0.0506877,0.02191579,-0.5340004,0.0452272,0.8180174,36.68823,-1.893666,-35.95467,990.4005
2.107478142,-0.02707889,0.008614345,0.1437572,-0.5339686,0.04371961,0.8203964,36.68823,-1.893666,-35.95467,990.4005
2.112395763,-0.02708131,0.008627567,0.02186917,-0.5394389,0.04818466,0.8137869,36.68823,-1.893666,-35.95467,990.4005
2.117314339,-0.0888463,0.008566313,-0.03906259,-0.5349395,0.03742874,0.8172895,36.68823,-1.893666,-35.95467,990.4005
2.122232437,0.09661389,0.06779388,-0.1609123,-0.5359382,0.04276336,0.8184398,36.68823,-1.893666,-35.95467,990.4005
2.127151012,0.03480992,-0.1099292,0.143817,-0.5393472,0.03932951,0.8178722,36.68823,-1.893666,-35.95467,990.4005
2.132069111,0.03482684,-0.05062702,-0.09994529,-0.5354539,0.04277685,0.8179507,36.68823,-1.893666,-35.95467,990.4005
2.136987686,-0.08881742,0.1270853,-0.1608771,-0.5369476,0.04667198,0.8176023,36.68823,-1.893666,-35.95467,990.4005
2.141905785,0.1584249,-0.05071223,0.08297256,-0.5384105,0.04423976,0.8165653,36.37388,-1.52438,-35.9441,990.4005
2.149282932,0.03482796,-0.1691119,-0.09989791,-0.5354643,0.0471364,0.8195472,36.37388,-1.52438,-35.9441,990.4005
2.154201508,0.03478669,0.008637625,0.2048314,-0.5349444,0.04081346,0.8188546,36.37388,-1.52438,-35.9441,990.4005
2.159119606,-0.02703662,0.008613553,0.02196785,-0.5389051,0.04521016,0.8166004,36.37388,-1.52438,-35.9441,990.4005
2.164038181,0.0965639,-0.1098393,0.02195407,-0.5388905,0.03843166,0.8139552,36.37388,-1.52438,-35.9441,990.4005
2.168955803,0.03474059,0.008658532,-0.1608137,-0.5354972,0.04382424,0.8141003,36.37388,-1.52438,-35.9441,990.4005
2.173876762,0.2201037,0.4233029,-0.03893412,-0.5374379,0.04522343,0.8165888,36.37388,-1.52438,-35.9441,990.3989
2.178792477,-0.08900307,0.186198,0.02206574,-0.5374412,0.04330098,0.8150706,36.37388,-1.52438,-35.9441,990.3989
2.183711052,-0.02716509,-0.1100283,0.08296989,-0.532573,0.04483469,0.8136231,36.37388,-1.52438,-35.9441,990.3989
2.188629150,0.03465345,0.06768415,-0.03889907,-0.5369359,0.04375655,0.8170232,36.37388,-1.52438,-35.9441,990.3989
2.193547726,0.03465109,0.1269118,-0.03889375,-0.5389355,0.04478623,0.8131884,37.06993,-2.217255,-35.51628,990.3989
2.198465824,-0.0271527,0.2453168,-0.1606862,-0.5315875,0.04434706,0.814085,37.06993,-2.217255,-35.51628,990.3989
2.203383923,-0.1507774,-0.05096526,-0.03876838,-0.537893,0.04081411,0.8174222,37.06993,-2.217255,-35.51628,990.3989
2.208302498,0.1582664,-0.2286881,0.02217395,-0.535966,0.04522764,0.8170624,37.06993,-2.217255,-35.51628,990.3989
2.213220120,0.0964043,-0.110097,-0.09969512,-0.5388231,0.0397488,0.8217655,37.06993,-2.217255,-35.51628,990.3989
2.218138695,0.1581063,-0.05079484,0.2050149,-0.535489,0.04236198,0.8140534,37.06993,-2.217255,-35.51628,990.3989
2.225516319,-0.02733058,0.1268962,-0.160648,-0.5373988,0.046595,0.8214878,37.06993,-2.217255,-35.51628,990.3989
2.230434895,0.09630896,0.0676021,0.1441004,-0.5378806,0.03693291,0.8163267,37.06993,-2.217255,-35.51628,990.3989
2.235352516,-0.2127006,-0.05090639,0.0222313,-0.5384011,0.04422162,0.8175356,37.06993,-2.217255,-35.51628,990.3989
2.240271568,0.03454178,-0.1101074,-0.03871979,-0.5373971,0.04128782,0.8184044,36.69607,-2.214085,-35.51709,990.3989
2.245189190,0.03455894,-0.1100754,0.08315969,-0.5354517,0.03987955,0.8164012,36.69607,-2.214085,-35.51709,990.3989
2.250107288,0.03455664,0.1861031,-0.03874769,-0.5368839,0.04365678,0.8223605,36.69607,-2.214085,-35.51709,990.3972
2.255025864,-0.027286,-0.1101604,0.1440689,-0.5369842,0.04818865,0.814738,36.69607,-2.214085,-35.51709,990.3972
2.259943962,0.03451319,-0.1101284,-0.09971273,-0.5408735,0.04569802,0.8156611,36.69607,-2.214085,-35.51709,990.3972
2.264862537,0.09633184,0.0676212,-0.1605681,-0.5384011,0.04422162,0.8175356,36.69607,-2.214085,-35.51709,990.3972
2.269780636,0.03450871,0.00840154,0.08324308,-0.5349735,0.04183364,0.81646,36.69607,-2.214085,-35.51709,990.3972
2.274699211,-0.02725623,0.1268437,0.02225363,-0.5325066,0.04133207,0.8183657,36.69607,-2.214085,-35.51709,990.3972
2.279616833,0.1581459,0.2452115,0.02223964,-0.5373743,0.04220823,0.8213469,36.69607,-2.214085,-35.51709,990.3972
2.286994934,-0.02731041,0.1858775,0.1440164,-0.5388643,0.04127454,0.8184161,36.69607,-2.214085,-35.51709,990.3972
2.291913033,0.09630973,-0.05115275,-0.1606832,-0.5374579,0.04043996,0.8115803,37.07273,-2.583899,-35.52752,990.3954
2.296830654,-0.02733429,0.06734545,-0.09970256,-0.5350044,0.03899983,0.811514,37.07273,-2.583899,-35.52752,990.3954
2.301749230,0.0962664,0.008070184,0.1440895,-0.5344729,0.03892263,0.8158769,37.07273,-2.583899,-35.52752,990.3954
2.306667328,0.03440447,0.06726091,-0.03875501,-0.5374494,0.04476323,0.8151175,37.07273,-2.583899,-35.52752,990.3954
2.311585903,0.03440229,-0.05122881,-0.03874981,-0.5374377,0.04184779,0.8145385,37.07273,-2.583899,-35.52752,990.3954
2.316504002,-0.2128058,0.06726939,0.205004,-0.5349106,0.03978421,0.8217345,37.07273,-2.583899,-35.52752,990.3954
2.321422577,-0.02730652,-0.1104906,0.1439572,-0.532096,0.04196902,0.8106142,37.07273,-2.583899,-35.52752,990.3954
2.326346397,0.03451213,0.06727786,-0.1607424,-0.5378417,0.04168011,0.823276,37.07273,-2.583899,-35.52752,990.3954
2.331259251,-0.08909304,-0.1103704,-0.03878626,-0.5379079,0.04180709,0.8164831,37.07273,-2.583899,-35.52752,990.3954
2.336180210,-0.08907589,0.008109174,-0.03874275,-0.539369,0.04322886,0.8179973,37.07273,-2.583899,-35.52752,990.3954
2.341095924,-0.08896168,-0.05112902,0.02219959,-0.5369021,0.0427273,0.8199031,36.69057,-2.199203,-35.96403,990.3954
2.346013546,0.03469713,0.008117423,-0.03867494,-0.5354729,0.04281313,0.8160099,36.69057,-2.199203,-35.96403,990.3954
2.350932121,0.03469478,0.06736398,-0.2214621,-0.5383205,0.04069179,0.8237337,36.69057,-2.199203,-35.96403,990.3954
2.358309746,-0.08894087,0.06744931,-0.03855684,-0.5369439,0.04184315,0.8150198,36.69057,-2.199203,-35.96403,990.3954
2.363227367,-0.08890438,-0.1102549,-0.03849435,-0.5388778,0.04033598,0.816444,36.69057,-2.199203,-35.96403,990.3954
2.368145943,0.03473499,-0.1102042,0.02246697,-0.5359793,0.04091344,0.81304,36.69057,-2.199203,-35.96403,990.3954
2.373064041,-0.02710778,-0.1101164,0.1442697,-0.5398656,0.04372092,0.8175316,36.69057,-2.199203,-35.96403,990.3954
2.377982617,0.0346719,-0.05079563,-0.0994929,-0.5354306,0.03694597,0.8167924,36.69057,-2.199203,-35.96403,990.3954
2.382900715,-0.2125363,0.008487882,0.02244386,-0.5369772,0.04528228,0.8136737,36.69057,-2.199203,-35.96403,990.3954
2.387819290,0.03476429,-0.1692537,-0.03848825,-0.53938,0.04517852,0.8180599,36.69337,-2.565848,-35.97527,990.3954
2.392737389,-0.02705902,-0.169166,-0.2212563,-0.5364942,0.04385167,0.8121672,36.69337,-2.565848,-35.97527,990.3954
2.397655964,-0.08882408,-0.1099011,-0.03832507,-0.5373952,0.04176616,0.8189053,36.69337,-2.565848,-35.97527,990.3954
2.402573586,-0.08874885,-0.05059899,-0.09929554,-0.5393215,0.03976252,0.820799,36.69337,-2.565848,-35.97527,990.3954
2.407492638,0.034871,0.06784305,0.02267942,-0.5364415,0.04278614,0.816988,36.69337,-2.565848,-35.97527,990.3954
2.412410259,-0.02691357,0.008585977,0.02264602,-0.5354816,0.04186549,0.814523,36.69337,-2.565848,-35.97527,990.3954
2.417328835,-0.08871754,-0.2282957,-0.03830536,-0.5378776,0.04223102,0.8198952,36.69337,-2.565848,-35.97527,990.3954
2.422246933,0.09674259,0.06795696,0.08359298,-0.5369387,0.04424397,0.8170388,36.69337,-2.565848,-35.97527,990.3954
2.427165508,-0.1505435,-0.1689992,0.08352133,-0.5378667,0.04028135,0.8198326,36.69337,-2.565848,-35.97527,990.3954
2.434542656,0.1584504,0.06805494,-0.03829766,-0.5418597,0.04715142,0.8157158,36.69337,-2.565848,-35.97527,990.3954
2.439460754,0.1583702,0.06806806,-0.09915332,-0.5403598,0.04131568,0.8155164,37.06993,-2.217255,-35.51628,990.3954
2.444379330,-0.02709487,-0.1688696,-0.03824961,-0.5389366,0.03996647,0.8101206,37.06993,-2.217255,-35.51628,990.3954
2.449297428,-0.1507196,0.1273831,0.0836487,-0.53053,0.03938196,0.819258,37.06993,-2.217255,-35.51628,990.3954
2.454216004,-0.08880404,0.008874162,0.0836153,-0.5384285,0.03993462,0.8120575,37.06993,-2.217255,-35.51628,990.3954
2.459134102,-0.08880651,-0.05040167,-0.1601666,-0.5388103,0.04165312,0.8242541,37.06993,-2.217255,-35.51628,990.3954
2.464052677,0.1583969,0.008844327,0.02270709,-0.5409133,0.04529222,0.8112786,37.06993,-2.217255,-35.51628,990.3954
2.468970299,0.03473334,0.06807178,-0.0382252,-0.5368763,0.03978464,0.8207796,37.06993,-2.217255,-35.51628,990.3954
2.473889351,0.09651302,-0.1096515,-0.03820119,-0.5344987,0.04186527,0.8150004,37.06993,-2.217255,-35.51628,990.3954
2.478806973,0.03467031,-0.1096012,-0.09909519,-0.540372,0.04182124,0.8145617,37.06993,-2.217255,-35.51628,990.3954
2.483725548,-0.02713348,0.06812953,-0.03811495,-0.5359483,0.04374726,0.8179859,37.06993,-2.217255,-35.51628,990.3954
2.488643646,-0.08887909,-0.05032346,-0.038091,-0.5428005,0.04466013,0.8180714,37.06443,-2.202373,-35.96322,990.3954
2.493561745,0.09656172,0.06815553,-0.0380862,-0.5384606,0.04481786,0.8117289,37.06443,-2.202373,-35.96322,990.3972
2.500939369,0.03463046,-0.228018,0.08374741,-0.5398444,0.04078734,0.8179229,37.06443,-2.202373,-35.96322,990.3972
2.505857468,-0.08897483,0.009020063,0.08375221,-0.5384116,0.03941999,0.8134975,37.06443,-2.202373,-35.96322,990.3972
2.510776043,0.09650493,0.06822876,-0.03815553,-0.5364631,0.04330983,0.8150628,37.06443,-2.202373,-35.96322,990.3972
2.515694142,-0.02717805,0.06818581,-0.09912612,-0.5345173,0.04768708,0.8166439,37.06443,-2.202373,-35.96322,990.3972
2.520612717,0.09648082,0.1866276,-0.1599818,-0.5368855,0.03642713,0.8177589,37.06443,-2.202373,-35.96322,990.3972
2.525530815,0.03465758,0.008867042,0.02287268,-0.5428038,0.04273768,0.8165532,37.06443,-2.202373,-35.96322,990.3972
2.530449391,-0.02714622,0.008880039,-0.09899683,-0.5364186,0.04370655,0.8199306,37.06443,-2.202373,-35.96322,990.3972
2.535367012,0.1582558,0.06814479,0.0838385,-0.538372,0.04320144,0.8199304,37.06443,-2.202373,-35.96322,990.4015
2.540285111,-0.08899128,-0.05041998,0.02288701,-0.5365022,0.04193827,0.8101639,37.43595,-1.900005,-35.95305,990.4015
2.545203686,-0.02719215,0.1273294,-0.0381028,-0.5393708,0.03937486,0.8154461,37.43595,-1.900005,-35.95305,990.4015
2.550121784,-0.2125795,-0.228093,-0.03804057,-0.5384409,0.04381583,0.8131532,37.43595,-1.900005,-35.95305,990.4015
2.557499886,0.03465192,-0.1095608,0.1448833,-0.5368976,0.04609387,0.8224387,37.43595,-1.900005,-35.95305,990.4015
2.562417507,-0.02719073,-0.05025882,0.08393169,-0.534479,0.04086323,0.8164248,37.43595,-1.900005,-35.95305,990.4015
2.567336083,0.0346472,0.009005823,-0.03797616,-0.5393352,0.0421996,0.8208773,37.43595,-1.900005,-35.95305,990.4015
2.572254181,0.03464484,0.008981525,-0.03791401,-0.5364957,0.0457832,0.8132003,37.43595,-1.900005,-35.95305,990.4015
2.577173710,-0.02715895,0.0682647,0.08394579,-0.5409507,0.04777466,0.8089309,37.43595,-1.900005,-35.95305,990.3989
2.582090855,0.03465958,-0.05022559,0.02299417,-0.5355144,0.04771451,0.8147107,37.43595,-1.900005,-35.95305,990.3989
2.587009430,0.03461837,-0.05019395,-0.09883711,-0.5418837,0.04141124,0.8097056,37.0676,-1.911717,-35.50692,990.3989
2.591927529,-0.02718543,0.009107875,0.023061,-0.5379161,0.04326935,0.8165301,37.0676,-1.911717,-35.50692,990.3989
2.596845150,0.03461365,0.1276054,0.02304652,-0.5369031,0.03790753,0.8168353,37.0676,-1.911717,-35.50692,990.3989
2.601763725,-0.02720954,0.127581,0.02299374,-0.5398323,0.04028178,0.8188777,37.0676,-1.911717,-35.50692,990.3989
2.606681824,-0.02723129,0.06832358,0.08393558,-0.5374066,0.04130596,0.817434,37.0676,-1.911717,-35.50692,990.3989
2.611600399,-0.0272142,-0.1686328,-0.03799142,-0.5374541,0.0447723,0.8146324,37.0676,-1.911717,-35.50692,990.3989
2.616518498,0.03456554,0.068368,-0.1598036,-0.5408917,0.04476852,0.8132039,37.0676,-1.911717,-35.50692,990.3972
2.623896599,-0.08905053,0.06834087,-0.09884981,-0.5389173,0.04571572,0.8156456,37.0676,-1.911717,-35.50692,990.3972
2.628814221,-0.02721255,0.2459598,0.0231057,-0.5359387,0.04035347,0.8169059,37.0676,-1.911717,-35.50692,990.3972
2.633732796,-0.08899694,0.008891792,0.08404746,-0.540828,0.04175333,0.817962,37.0676,-1.911717,-35.50692,990.3972
2.638650894,-0.02713956,0.008923437,0.08399468,-0.5349932,0.04283569,0.8150356,37.06209,-1.896835,-35.95386,990.3972
2.643568993,0.03467898,0.008899138,-0.2206481,-0.536921,0.04276357,0.8179623,37.06209,-1.896835,-35.95386,990.3972
2.648487568,-0.02716367,-0.1688056,-0.09869263,-0.538431,0.04620756,0.8156574,37.06209,-1.896835,-35.95386,990.3972
2.653405667,0.03463541,-0.05019621,0.02320537,-0.5393676,0.04129732,0.8169643,37.06209,-1.896835,-35.95386,990.3972
2.658324242,0.03463305,-0.1686121,0.08412792,-0.5398961,0.04667263,0.8161699,37.06209,-1.896835,-35.95386,990.3972
2.663241863,0.09641273,0.009118497,0.08411335,-0.540419,0.03853629,0.8076592,37.06209,-1.896835,-35.95386,990.3972
2.668160439,-0.02723135,0.06836437,-0.03777548,-0.540415,0.04865416,0.8142955,37.06209,-1.896835,-35.95386,990.3972
2.673078537,0.09636927,-0.1093405,0.1450597,-0.5379207,0.03990277,0.8139945,37.06209,-1.896835,-35.95386,990.3972
2.677997112,-0.0272748,0.009157148,0.1449877,-0.5379667,0.04143757,0.8101599,37.06209,-1.896835,-35.95386,990.3972
2.685374260,-0.08899234,0.009148672,0.02305338,-0.5344907,0.04377868,0.8170038,36.69337,-2.565848,-35.97527,990.3972
2.690292359,-0.1507185,0.009105727,-0.09879709,-0.5364988,0.04048508,0.8096317,36.69337,-2.565848,-35.97527,990.3972
2.695210934,0.03474177,-0.1093475,0.2668495,-0.5369389,0.0476196,0.8190892,36.69337,-2.565848,-35.97527,990.3972
2.700129032,-0.02704269,0.009168675,-0.1598015,-0.5369444,0.03943327,0.8134859,36.69337,-2.565848,-35.97527,990.3972
2.705047608,0.09657722,0.06839602,-0.03786512,-0.5349822,0.04088601,0.814973,36.69337,-2.565848,-35.97527,990.3972
2.709965706,-0.02704758,0.009101433,0.02309579,-0.5349768,0.03991118,0.8149416,36.69337,-2.565848,-35.97527,990.3972
2.714884281,-0.1506141,-0.168622,-0.03785588,-0.534914,0.04123739,0.8222667,36.69337,-2.565848,-35.97527,990.3972
2.719802380,-0.08875681,0.06839749,0.02304763,-0.5394375,0.04625313,0.8127539,36.69337,-2.565848,-35.97527,990.3972
2.724720955,-0.08872043,0.1276247,0.02307146,-0.536934,0.04423489,0.817524,36.69337,-2.565848,-35.97527,990.3972
2.729638577,0.1585412,0.009171501,0.02311439,-0.5394165,0.0466952,0.8151956,36.69337,-2.565848,-35.97527,990.3972
2.734557152,0.2202625,-0.0501232,0.0230807,-0.536967,0.04429838,0.8141276,37.07544,-2.232136,-35.06934,990.3972
2.739475250,-0.08880556,-0.1092875,0.08404162,-0.5403802,0.0432835,0.8146086,37.07544,-2.232136,-35.06934,990.3972
2.746852398,0.03480338,-0.1092402,-0.1597287,-0.5394306,0.04334677,0.8116897,37.07544,-2.232136,-35.06934,990.3972
2.751770973,-0.212405,0.1277233,0.0840819,-0.5393405,0.03979879,0.8188581,37.07544,-2.232136,-35.06934,990.3972
2.756690026,-0.08874626,0.009139857,0.02309192,-0.5389091,0.04425347,0.8155987,37.07544,-2.232136,-35.06934,990.3972
2.761607647,0.09667509,0.2460477,0.02303914,-0.5369636,0.0428452,0.8135954,37.07544,-2.232136,-35.06934,990.3972
2.766525746,-0.02696917,0.009016786,0.02296723,-0.5354838,0.04476279,0.8160725,37.07544,-2.232136,-35.06934,990.3972
2.771444321,0.0348881,-0.109455,-0.03790776,-0.5383698,0.04030413,0.8183809,37.07544,-2.232136,-35.06934,990.3972
2.776368141,0.09662881,0.06829431,-0.03784568,-0.539873,0.04421741,0.817062,37.07544,-2.232136,-35.06934,990.3954
2.781280995,-0.02701539,-0.1094664,0.08403322,-0.5363922,0.04317379,0.8223409,37.07544,-2.232136,-35.06934,990.3954
2.786199093,-0.0888193,0.1274601,-0.09879272,-0.5325372,0.04428379,0.817004,36.69057,-2.199203,-35.96403,990.3954
2.791117668,-0.02696204,-0.05026323,0.02312448,-0.5399148,0.04333327,0.8121787,36.69057,-2.199203,-35.96403,990.3954
2.796035290,-0.08874655,-0.05021305,-0.03780804,-0.5388996,0.04423533,0.8165691,36.69057,-2.199203,-35.96403,990.3954
2.800953865,-0.1504923,-0.1094332,0.02317197,-0.5364644,0.04186571,0.8140455,36.69057,-2.199203,-35.96403,990.3954
2.808331490,0.03499563,0.06822018,-0.09872413,-0.538911,0.04377512,0.8150979,36.69057,-2.199203,-35.96403,990.3954
2.813249111,0.09675568,0.127429,0.08411103,-0.5354903,0.04091787,0.8130361,36.69057,-2.199203,-35.96403,990.3954
2.818167687,0.1585546,-0.1688349,-0.09867667,-0.5359342,0.04372005,0.8194415,36.69057,-2.199203,-35.96403,990.3954
2.823085785,0.09669242,0.1273433,0.1451147,-0.5340584,0.04389194,0.8111775,36.69057,-2.199203,-35.96403,990.3954
2.828004360,0.09665109,-0.05039861,0.08412472,-0.5393994,0.04280493,0.8145852,36.69057,-2.199203,-35.96403,990.3954
2.832922459,0.03478893,0.2458168,0.02313474,-0.5378838,0.04417162,0.820443,37.06723,-2.569017,-35.97446,990.3954
2.837841034,0.03474766,-0.1689503,0.08407649,-0.5369292,0.04422582,0.8180093,37.06723,-2.569017,-35.97446,990.3954
2.842759133,0.2201108,-0.1688627,0.205898,-0.5345507,0.04196504,0.8096632,37.06723,-2.569017,-35.97446,990.3954
2.847677708,-0.02717511,-0.05029057,0.08393262,-0.5393352,0.0421996,0.8208773,37.06723,-2.569017,-35.97446,990.3954
2.852601052,0.09638667,0.06822571,0.02296191,-0.538408,0.04712798,0.8186,37.06723,-2.569017,-35.97446,990.3954
2.857514382,-0.02721856,0.008968416,0.14486,-0.5359265,0.03984791,0.8178607,37.06723,-2.569017,-35.97446,990.3998
2.862432003,0.09640147,0.06817711,0.0229522,-0.5369947,0.04338703,0.8106998,37.06723,-2.569017,-35.97446,990.3998
2.867354870,-0.08898586,0.00891982,-0.0379802,-0.5354385,0.04419375,0.8204237,37.06723,-2.569017,-35.97446,990.3998
2.874728203,-0.02719763,-0.1095918,0.1447713,-0.5394213,0.04670427,0.8147104,37.06723,-2.569017,-35.97446,990.3998
2.879645825,0.03458211,0.008924454,0.02282521,-0.536505,0.04242568,0.8101795,37.06723,-2.569017,-35.97446,990.3998
2.884564400,0.03459927,0.1865621,0.08380546,-0.5374236,0.04182058,0.8159941,37.06479,-1.545073,-35.49568,990.3998
2.889482498,-0.2126283,-0.05045003,-0.09905863,-0.5394042,0.042814,0.8141,37.06479,-1.545073,-35.49568,990.3998
2.894406319,-0.02710972,0.008758889,0.08381505,-0.5399016,0.04764747,0.8162012,37.06479,-1.545073,-35.49568,990.3998
2.899319172,0.03468935,-0.1096755,0.08376238,-0.537943,0.04139223,0.8125858,37.06479,-1.545073,-35.49568,990.3998
2.904237747,-0.2124607,0.06799946,-0.2208994,-0.5389235,0.04765632,0.8161935,37.06479,-1.545073,-35.49568,990.3998
2.909155846,0.03482042,0.06801257,0.0838485,-0.5378363,0.04070528,0.8232447,37.06479,-1.545073,-35.49568,990.3998
2.914074421,-0.08880445,0.06796984,-0.09899645,-0.5340146,0.04525441,0.8165618,37.06479,-1.545073,-35.49568,990.3998
2.918992520,0.0348154,0.127216,-0.03801627,-0.5350029,0.04622947,0.8161156,37.06479,-1.545073,-35.49568,990.3998
2.923911095,0.09659497,0.008651413,0.08382446,-0.5394312,0.04431253,0.8122061,37.06479,-1.545073,-35.49568,990.3998
2.928828716,-0.02704923,0.008608807,-0.0989439,-0.5369818,0.0419157,0.8111382,37.06479,-1.545073,-35.49568,990.3998
2.933747292,0.03476924,0.008622029,-0.03798287,-0.5398733,0.03843188,0.8134778,37.43828,-2.205542,-35.96241,990.3998
2.938665390,0.1583892,0.06783095,0.02297816,-0.5369177,0.04468603,0.8194805,37.43828,-2.205542,-35.96241,990.3981
2.943583489,-0.02711468,0.1270213,-0.03793515,-0.5369636,0.0428452,0.8135954,37.43828,-2.205542,-35.96241,990.3981
2.950961113,-0.02708915,-0.05077879,-0.03789939,-0.5359308,0.04226686,0.8189093,37.43828,-2.205542,-35.96241,990.3981
2.955879212,0.03469053,0.008486073,-0.03787556,-0.5373681,0.04026764,0.8207992,37.43828,-2.205542,-35.96241,990.3981
2.960797787,0.03468817,0.008499296,-0.09878892,-0.5340008,0.03944168,0.8144331,37.43828,-2.205542,-35.96241,990.3981
2.965715885,0.1582887,0.06772698,0.02310913,-0.5379447,0.0466994,0.8156692,37.43828,-2.205542,-35.96241,990.3981
2.970635891,0.03462515,0.186169,-0.09876052,-0.5388684,0.04031784,0.8174143,37.43828,-2.205542,-35.96241,990.3981
2.975552559,-0.08899959,-0.1693089,0.08409382,-0.5364012,0.04560181,0.8229043,37.43828,-2.205542,-35.96241,990.3981
2.980471134,-0.02716161,-0.05075506,-0.09877043,-0.5374661,0.04190221,0.8116273,37.43828,-2.205542,-35.96241,990.3964
2.985388756,0.03463747,-0.05079767,0.02314677,-0.5383902,0.04227194,0.8174731,37.44145,-1.914887,-35.50611,990.3964
2.990306854,0.03459632,0.0084672,-0.0378049,-0.5413673,0.04570266,0.8151798,37.44145,-1.914887,-35.50611,990.3964
2.995225430,0.09639546,-0.1100042,0.02313686,-0.5399063,0.04765654,0.815716,37.44145,-1.914887,-35.50611,990.3964
3.000143528,-0.1508127,-0.0507207,-0.2205879,-0.5379182,0.042791,0.8160293,37.44145,-1.914887,-35.50611,990.3964
3.005062103,-0.02713443,-0.05070748,-0.1594931,-0.5389113,0.04715076,0.8171482,37.44145,-1.914887,-35.50611,990.3964
3.012439251,0.0346926,0.008610615,0.08425264,-0.5325539,0.04142277,0.8135136,37.44145,-1.914887,-35.50611,990.3964
3.017357826,0.03469024,-0.05062781,0.0232817,-0.5369111,0.0451553,0.8204666,37.44145,-1.914887,-35.50611,990.3964
3.022275925,-0.02713301,0.008562584,0.08416593,-0.5388822,0.04613058,0.8195429,37.44145,-1.914887,-35.50611,990.3964
3.027197838,-0.02711591,0.008631635,-0.09867922,-0.5384127,0.04713705,0.8181148,37.44145,-1.914887,-35.50611,990.3964
3.032112598,0.03472202,0.008589029,0.02325708,-0.5359589,0.03894563,0.8139477,36.69607,-2.214085,-35.51709,990.3964
3.037030697,0.0347002,0.1270497,0.02324249,-0.5349396,0.04080439,0.8193399,36.69607,-2.214085,-35.51709,990.3964
3.041949272,0.1582619,-0.1099063,0.0841076,-0.5364497,0.04424839,0.8170349,36.69607,-2.214085,-35.51709,990.3964
3.046866894,-0.08898515,-0.05062283,-0.0987375,-0.5368989,0.04464975,0.8214213,36.69607,-2.214085,-35.51709,990.3964
3.051785469,-0.08896811,0.0678192,-0.03773834,-0.5389213,0.04475902,0.814644,36.69607,-2.214085,-35.51709,990.3964
3.056703568,0.03463246,0.008599427,-0.1595698,-0.53841,0.04664963,0.8180991,36.69607,-2.214085,-35.51709,990.3964
3.061622143,0.0346301,-0.05065764,-0.03763352,-0.5383766,0.03983485,0.8173948,36.69607,-2.214085,-35.51709,990.3964
3.066540241,-0.02717369,-0.1098402,0.02334643,-0.5374434,0.04619827,0.8166202,36.69607,-2.214085,-35.51709,990.3964
3.073918343,-0.0271869,-0.05057808,0.08428074,-0.5369616,0.04332355,0.8140963,36.69607,-2.214085,-35.51709,990.3964
3.078835964,-0.08893244,0.06791978,0.08424694,-0.5339738,0.0413188,0.8183773,36.69607,-2.214085,-35.51709,990.3964
3.083756924,0.03468753,0.2455948,-0.03768029,-0.5378926,0.04659964,0.8210065,37.06723,-2.569017,-35.97446,990.3964
3.088672638,0.03470456,-0.05061289,-0.03763748,-0.5344771,0.04134158,0.8169255,37.06723,-2.569017,-35.97446,990.3964
3.093591213,0.03470215,0.008614684,-0.03767128,-0.538378,0.04176638,0.8184278,37.06723,-2.569017,-35.97446,990.3964
3.098509312,-0.08890314,0.1270567,0.02328952,-0.5398319,0.04606731,0.8224619,37.06723,-2.569017,-35.97446,990.3964
3.103427410,-0.02710412,-0.2284213,-0.03760481,-0.5398985,0.04040876,0.8120848,37.06723,-2.569017,-35.97446,990.3964
3.108345985,0.09647705,0.008635703,0.02337509,-0.5354898,0.04332776,0.8145699,37.06723,-2.569017,-35.97446,990.3964
3.113263607,-0.02718649,0.06780744,-0.03757676,-0.543274,0.04269698,0.8184978,37.06723,-2.569017,-35.97446,990.3964
3.118182182,0.09639469,-0.1099156,0.08426371,-0.5359457,0.04325984,0.8179702,37.06723,-2.569017,-35.97446,990.3964
3.123100281,-0.02726885,-0.05065075,0.02329277,-0.5358459,0.03631808,0.8240587,37.06723,-2.569017,-35.97446,990.3964
3.130478382,0.03457775,-0.05060294,-0.09854604,-0.5359578,0.0437654,0.8170154,37.05929,-1.530191,-35.94262,990.3964
3.135396481,-0.0272649,-0.109767,0.08426987,-0.5373909,0.03934721,0.8178567,37.05929,-1.530191,-35.94262,990.3964
3.140315056,-0.08906864,0.008693567,0.08423607,-0.5389536,0.04385675,0.810731,37.05929,-1.530191,-35.94262,990.3964
3.145232677,-0.02719179,0.008688142,-0.2204451,-0.5374649,0.04334633,0.8126445,37.05929,-1.530191,-35.94262,990.3964
3.150150776,0.03458795,0.00866407,0.08437908,-0.536939,0.03845843,0.8134546,37.05929,-1.530191,-35.94262,990.3964
3.155069351,0.03456625,0.1270875,0.08432606,-0.5398012,0.03973995,0.8217733,37.05929,-1.530191,-35.94262,990.3964
3.159987450,-0.02729579,-0.05063561,-0.09853834,-0.5384598,0.04385211,0.8112124,37.05929,-1.530191,-35.94262,990.3964
3.164906025,-0.02722039,0.008647796,-0.03753929,-0.539424,0.04719169,0.8147261,37.05929,-1.530191,-35.94262,990.3964
3.169824123,-0.02718389,-0.2283084,-0.09845286,-0.5358915,0.04026277,0.821758,37.05929,-1.530191,-35.94262,990.3964
3.174742699,0.03463464,0.06790712,0.08440126,-0.538911,0.04377512,0.8150979,37.05929,-1.530191,-35.94262,990.3964
3.179660320,-0.08897065,0.186312,0.02346851,-0.5373551,0.03879631,0.8212374,37.06993,-2.217255,-35.51628,990.3964
3.187038422,0.09645937,0.06785638,-0.1593076,-0.5360228,0.04533648,0.81124,37.06993,-2.217255,-35.51628,990.3964
3.191956520,0.09647646,-0.05063368,-0.1592458,-0.5403038,0.04217261,0.8218554,37.06993,-2.217255,-35.51628,990.3964
3.196874142,-0.08889147,-0.1097977,-0.09824692,-0.5344589,0.04227106,0.8193829,37.06993,-2.217255,-35.51628,990.3964
3.201792717,0.03468965,-0.05057017,-0.09820434,-0.5369108,0.04177966,0.8184162,37.06993,-2.217255,-35.51628,990.3964
3.206710815,-0.2124604,-0.2282189,-0.03714806,-0.5417919,0.04171727,0.8194253,37.06993,-2.217255,-35.51628,990.3964
3.211634636,-0.08876282,-0.2280756,0.02377414,-0.5364341,0.04228964,0.8174576,37.06993,-2.217255,-35.51628,990.3964
3.216550827,-0.08870705,0.06813982,-0.03717794,-0.5403822,0.04280515,0.8141077,37.06993,-2.217255,-35.51628,990.3964
3.221466065,0.09675309,0.008882525,-0.03713541,-0.5360004,0.04384702,0.8126486,37.06993,-2.217255,-35.51628,990.3947
3.226384163,-0.02691069,-0.1095705,-0.03713123,-0.5384213,0.04281379,0.8145775,37.06993,-2.217255,-35.51628,990.3947
3.231303215,0.03488827,-0.05025,-0.1590014,-0.5388489,0.04269145,0.8208891,37.43595,-1.900005,-35.95305,990.3947
3.236220837,0.0348858,0.1274434,0.02389084,-0.538926,0.04476809,0.8141587,37.43595,-1.900005,-35.95305,990.3947
3.241139412,0.03490272,0.1273634,-0.09794103,-0.5325163,0.04472585,0.8194457,37.43595,-1.900005,-35.95305,990.3947
3.246060371,0.03486139,0.00891044,-0.03694236,-0.53842,0.04425789,0.8155948,37.43595,-1.900005,-35.95305,990.3947
3.253434658,0.09666884,0.008902077,-0.0978447,-0.540826,0.04223168,0.8184628,37.43595,-1.900005,-35.95305,990.3947
3.258353233,-0.02701427,-0.05031792,0.145927,-0.5379376,0.04041739,0.8125545,37.43595,-1.900005,-35.95305,990.3973
3.263270855,-0.0269779,0.06817971,0.02398025,-0.5358907,0.03929701,0.8212414,37.43595,-1.900005,-35.95305,990.3973
3.268189430,0.158424,-0.1687767,0.02396519,-0.5369561,0.0423487,0.814065,37.43595,-1.900005,-35.95305,990.3973
3.273107529,0.09656189,-0.1687079,0.02396929,-0.5374534,0.04380654,0.8141158,37.43595,-1.900005,-35.95305,990.3973
3.278026104,0.03473858,-0.1093502,0.02399254,-0.5374752,0.04770587,0.814241,37.0676,-1.911717,-35.50692,990.3973
3.282944202,-0.02708473,0.009091487,0.08493378,-0.5408462,0.04082384,0.8155046,37.0676,-1.911717,-35.50692,990.3973
3.287862778,0.1583173,-0.1094176,0.1458367,-0.5349857,0.04233919,0.8155051,37.0676,-1.911717,-35.50692,990.3973
3.292783260,-0.08894925,-0.1093675,0.08484623,-0.5389088,0.04087782,0.8135483,37.0676,-1.911717,-35.50692,990.3973
3.297699452,0.09651107,-0.05008444,-0.09801849,-0.5388265,0.04120198,0.8222977,37.0676,-1.911717,-35.50692,990.3973
3.302617550,-0.08891511,0.009142908,0.08483539,-0.5398365,0.04270074,0.8199263,37.0676,-1.911717,-35.50692,990.3956
3.307536125,0.1583272,0.009118611,0.1457384,-0.5359449,0.04229407,0.8174537,37.0676,-1.911717,-35.50692,990.3956
3.312453747,0.09640683,0.00911296,-0.03712635,-0.537944,0.04573364,0.8151527,37.0676,-1.911717,-35.50692,990.3956
3.319833279,-0.0890108,-0.04997979,-0.1590039,-0.5359166,0.04223965,0.8203649,37.0676,-1.911717,-35.50692,990.3956
3.324749947,-0.02715341,-0.05002284,0.0238691,-0.5398384,0.04222238,0.8194255,37.0676,-1.911717,-35.50692,990.3956
3.329667568,0.03462627,0.06847468,0.02381582,-0.537857,0.03688756,0.8187526,37.4485,-2.23318,-35.13239,990.3956
3.334586144,0.09646425,0.1276833,-0.09809255,-0.5354557,0.03892285,0.8153994,37.4485,-2.23318,-35.13239,990.3956
3.339504242,-0.08896192,0.009137032,0.08478048,-0.5393959,0.04135174,0.8140531,37.4485,-2.23318,-35.13239,990.3956
3.344422817,0.0347163,0.009112734,-0.1590213,-0.537946,0.04525529,0.8146518,37.4485,-2.23318,-35.13239,990.3956
3.349340916,-0.0889473,0.1275916,0.02383253,-0.5369581,0.04187036,0.8135641,37.4485,-2.23318,-35.13239,990.3956
3.354259491,0.03471152,-0.2278309,0.02379844,-0.535504,0.04335496,0.8131143,37.4485,-2.23318,-35.13239,990.3956
3.359181404,-0.02713113,0.009207101,0.2065758,-0.537421,0.04470881,0.8180288,37.4485,-2.23318,-35.13239,990.3956
3.364096165,-0.2125379,0.00918269,-0.0982014,-0.5373917,0.04031298,0.8183731,37.4485,-2.23318,-35.13239,990.3956
3.369014263,0.09656413,0.2460905,-0.03725999,-0.536507,0.04194734,0.8096787,37.4485,-2.23318,-35.13239,990.3956
3.373932839,-0.02708007,-0.2278911,-0.03723657,-0.5373999,0.04177523,0.8184201,37.4485,-2.23318,-35.13239,990.3956
3.381309986,0.09654833,0.06828414,0.08463454,-0.5383618,0.04221752,0.8203843,37.4485,-2.23318,-35.13239,990.3939
3.386228085,0.1583474,0.1274928,-0.03725462,-0.5374236,0.04182058,0.8159941,37.4485,-2.23318,-35.13239,990.3939
3.391146660,0.03464496,0.00892807,-0.03723119,-0.535439,0.04178387,0.8188898,37.4485,-2.23318,-35.13239,990.3939
3.396064282,-0.1507424,-0.05032922,-0.0981258,-0.5349633,0.04084974,0.8169138,37.4485,-2.23318,-35.13239,990.3939
3.400982857,-0.02712234,0.008935416,-0.0371653,-0.5394136,0.04283214,0.8131296,37.4485,-2.23318,-35.13239,990.3939
3.405900955,-0.08890674,0.008911118,-0.03716108,-0.5385076,0.04153291,0.8048264,37.4485,-2.23318,-35.13239,990.3939
3.410819531,0.09651472,0.008924115,0.02381852,-0.5354843,0.04235291,0.8145386,37.4485,-2.23318,-35.13239,990.3939
3.415737629,-0.02712942,0.06811439,-0.03715271,-0.5359041,0.03835845,0.8192694,37.4485,-2.23318,-35.13239,990.3939
3.420656204,0.03466966,0.127286,0.0238078,-0.5399094,0.04235843,0.8121474,37.4485,-2.23318,-35.13239,990.3939
3.425574303,-0.08891623,0.06799166,0.08472999,-0.5378361,0.03732963,0.8211943,37.4485,-2.23318,-35.13239,990.3939
3.430492878,-0.08893804,0.06794894,-0.09809636,-0.5374576,0.04622548,0.8151645,37.81765,-2.223594,-35.51467,990.3939
3.435410977,-0.02704186,-0.2282402,0.02382038,-0.534478,0.045683,0.8194925,37.81765,-2.223594,-35.51467,990.3939
3.440329552,-0.02702488,0.06801245,0.02384369,-0.5330402,0.04093092,0.8135018,37.81765,-2.223594,-35.51467,990.3939
3.445247173,0.03479359,0.2456502,0.08476586,-0.5349937,0.04042581,0.8135017,37.81765,-2.223594,-35.51467,990.3939
3.450165749,-0.08883122,-0.05070646,-0.03718082,-0.5428053,0.0446692,0.8175861,37.81765,-2.223594,-35.51467,990.3939
3.455083847,-0.08877544,0.00857705,0.02376053,-0.5354985,0.04238012,0.813083,37.81765,-2.223594,-35.51467,990.3939
3.460001946,-0.08871967,-0.05068002,-0.1590084,-0.537885,0.04272752,0.8194257,37.81765,-2.223594,-35.51467,990.3939
3.467379570,0.0967683,0.008656612,-0.03709914,-0.5399148,0.04333327,0.8121787,37.81765,-2.223594,-35.51467,990.3939
3.472297669,0.03494487,0.008595358,-0.03709498,-0.5389444,0.04721425,0.8137518,37.81765,-2.223594,-35.51467,990.3939
3.477216244,0.09676323,-0.05064306,0.02386546,-0.5364529,0.04232592,0.8155167,37.43865,-1.548242,-35.49487,990.3939
3.482134342,0.1585427,0.008603156,0.08474932,-0.535928,0.04177944,0.8188937,37.43865,-1.548242,-35.49487,990.3939
3.487052918,0.03491787,-0.05061662,0.02379725,-0.537469,0.04576528,0.8136932,37.43865,-1.548242,-35.49487,990.3939
3.491971016,-0.02688616,-0.0506034,0.02380146,-0.5388765,0.0417801,0.8174613,37.43865,-1.548242,-35.49487,990.3939
3.496889591,-0.08869013,0.06783864,-0.03711237,-0.5349974,0.04525463,0.8160843,37.43865,-1.548242,-35.49487,990.3939
3.501807690,0.09673116,0.008600217,-0.03710821,-0.5340002,0.04185156,0.815967,37.43865,-1.548242,-35.49487,990.3922
3.506726265,-0.08873399,-0.1098527,0.02377568,-0.5335395,0.0419104,0.8130519,37.43865,-1.548242,-35.49487,990.3922
3.511643887,0.1585082,-0.1097837,-0.03713809,-0.5378997,0.04034483,0.8164362,37.43865,-1.548242,-35.49487,990.3922
3.516561985,-0.08877786,0.008751317,-0.09805191,-0.5359813,0.04043509,0.812539,37.43865,-1.548242,-35.49487,990.3922
3.521480560,0.03486145,0.008745892,0.02384567,-0.5388658,0.04320608,0.8194491,37.43865,-1.548242,-35.49487,990.3922
3.526398659,-0.02694246,-0.05052982,-0.09798617,-0.5378977,0.04082318,0.816937,37.05738,-1.884079,-36.33695,990.3922
3.531317234,0.03485649,-0.1688897,0.08486765,-0.5379442,0.04910929,0.817203,37.05738,-1.884079,-36.33695,990.3922
3.536235333,-0.02692802,0.1273072,0.02389636,-0.5369406,0.04376562,0.816538,37.05738,-1.884079,-36.33695,990.3922
3.543612957,-0.02696086,0.008925697,-0.09801956,-0.5383753,0.04127897,0.8184122,37.05738,-1.884079,-36.33695,990.3922
3.548531056,0.09665905,0.008920046,0.08481516,-0.5354751,0.04571042,0.8175594,37.05738,-1.884079,-36.33695,990.3922
3.553449631,-0.0887867,-0.1095702,0.08480016,-0.536451,0.04280428,0.8160176,37.05738,-1.884079,-36.33695,990.3922
3.558367729,-0.08876978,-0.1095014,0.02380974,-0.5364841,0.04286776,0.8126212,37.05738,-1.884079,-36.33695,990.3922
3.563285351,-0.02693191,0.1866953,-0.1590166,-0.5369155,0.04178873,0.8179311,37.05738,-1.884079,-36.33695,990.3922
3.568204403,0.1584506,-0.1095126,-0.158955,-0.5354567,0.04326427,0.8179663,37.05738,-1.884079,-36.33695,990.3922
3.573122025,0.03482572,0.1274511,-0.1588935,-0.5374121,0.04228079,0.8174653,37.05738,-1.884079,-36.33695,990.3922
3.578040600,0.03482324,0.1274083,0.08491666,-0.5369332,0.04326913,0.8170075,36.69607,-2.214085,-35.51709,990.3922
3.582958698,0.03478197,0.06809529,-0.03701098,-0.5403132,0.04219075,0.820885,36.69607,-2.214085,-35.51709,990.3983
3.587877274,-0.02700254,-0.1688795,0.02396856,-0.5340062,0.04041652,0.8144644,36.69607,-2.214085,-35.51709,990.3983
3.592795372,-0.08876766,0.008907049,-0.09788249,-0.5398708,0.0413201,0.8155125,36.69607,-2.214085,-35.51709,990.3983
3.597713947,-0.150494,0.008901399,0.02395757,-0.541382,0.04331999,0.8121903,36.69607,-2.214085,-35.51709,990.3983
3.602632046,0.03494676,0.186539,-0.03695631,-0.5359707,0.04523671,0.8165773,36.69607,-2.214085,-35.51709,990.3983
3.607550621,-0.02689612,0.06799302,-0.03689481,-0.5373857,0.04174802,0.8198757,36.69607,-2.214085,-35.51709,990.3983
3.612468243,-0.08871955,0.008735946,0.1459206,-0.5428011,0.04225025,0.8165376,36.69607,-2.214085,-35.51709,990.3983
3.619845867,0.09674902,0.008727809,0.1458214,-0.5344654,0.03842614,0.8163465,36.69607,-2.214085,-35.51709,990.3983
3.624764443,-0.02685644,0.008685091,0.02387471,-0.5398797,0.04374813,0.816076,37.44145,-1.914887,-35.50611,990.3983
3.629682064,-0.02680073,0.008623837,-0.09797628,-0.5369347,0.04520065,0.8180406,37.44145,-1.914887,-35.50611,990.3983
3.634601116,-0.08858536,0.1271032,0.08485841,-0.5379602,0.04528249,0.8131962,37.44145,-1.914887,-35.50611,990.3983
3.639518738,0.1586761,-0.109853,-0.03708833,-0.5344718,0.0437424,0.8189446,37.44145,-1.914887,-35.50611,990.3983
3.644437313,0.03503178,0.06785921,-0.03704586,-0.5389059,0.04617593,0.8171169,37.44145,-1.914887,-35.50611,990.3983
3.649355412,-0.02677225,-0.109864,0.1457888,-0.5359232,0.04177037,0.8193789,37.44145,-1.914887,-35.50611,990.3983
3.654273987,0.03502659,0.008671077,0.0238804,-0.5398688,0.04179845,0.8160134,37.44145,-1.914887,-35.50611,990.3983
3.659192085,-0.08852068,-0.1098005,-0.03707173,-0.539378,0.04565688,0.8185608,37.44145,-1.914887,-35.50611,990.3983
3.664110661,0.03507959,0.008678762,-0.09802387,-0.5389193,0.04523737,0.8151448,37.44145,-1.914887,-35.50611,990.3965
3.669028759,-0.02668571,-0.05054101,-0.1589186,-0.5349935,0.03705016,0.8114514,37.44145,-1.914887,-35.50611,990.3965
3.676405907,-0.02671884,-0.0504749,-0.03702857,-0.5369027,0.04031741,0.8183693,37.06723,-2.569017,-35.97446,990.3965
3.681324482,-0.08852293,0.1272373,0.08486896,-0.5374268,0.03989812,0.8144758,37.06723,-2.569017,-35.97446,990.3965
3.686242581,-0.08844794,-0.1097561,-0.03702037,-0.5403503,0.04129754,0.8164869,37.06723,-2.569017,-35.97446,990.3965
3.691161156,0.09693438,0.06795606,0.1458334,-0.5364893,0.04046695,0.8106021,37.06723,-2.569017,-35.97446,990.3965
3.696078777,0.03507198,0.1271836,-0.03706958,-0.5388854,0.04420812,0.8180248,37.06723,-2.569017,-35.97446,990.3965
3.700997353,0.03506939,-0.1690055,-0.1589014,-0.5374094,0.04179337,0.8174497,37.06723,-2.569017,-35.97446,990.3965
3.705915451,-0.02679295,-0.1096663,0.02393325,-0.5330517,0.04047071,0.8120306,37.06723,-2.569017,-35.97446,990.3948
3.710834027,-0.08859704,0.2457635,-0.03701895,-0.5339691,0.04130973,0.8188625,37.06723,-2.569017,-35.97446,990.3948
3.715753555,-0.02673989,0.008732895,0.2676326,-0.5360113,0.04579669,0.8127112,37.06723,-2.569017,-35.97446,990.3948
3.720670700,-0.08852458,0.1864079,0.08467218,-0.5393518,0.04849976,0.8230215,37.06723,-2.569017,-35.97446,990.3948
3.725588799,-0.02668694,-0.05056678,0.145537,-0.5379467,0.04622106,0.8151684,37.43828,-2.205542,-35.96241,990.3948
3.730507374,0.0351119,-0.109824,0.1454838,-0.5373753,0.03738847,0.8182792,37.43828,-2.205542,-35.96241,990.3948
3.737884522,-0.0885241,-0.1097391,-0.03734981,-0.5393673,0.04708285,0.8205485,37.43828,-2.205542,-35.96241,990.3948
3.742802620,-0.02668647,-0.05047433,-0.03732632,-0.53645,0.03846286,0.8134507,37.43828,-2.205542,-35.96241,990.3914
3.747721195,-0.08847116,0.008715943,0.0236534,-0.53842,0.04425789,0.8155948,37.43828,-2.205542,-35.96241,990.3914
3.752639294,-0.08843502,-0.05052259,0.08461396,-0.5325885,0.04341779,0.8111503,37.43828,-2.205542,-35.96241,990.3914
3.757557869,-0.08836003,0.0679008,0.1454979,-0.5369325,0.04230335,0.8164911,37.43828,-2.205542,-35.96241,990.3914
3.762475491,0.03524019,0.008625081,0.08448854,-0.5394258,0.0433377,0.8121748,37.43828,-2.205542,-35.96241,990.3914
3.767394066,-0.1501475,-0.169005,0.02346002,-0.532544,0.04381451,0.8160179,37.43828,-2.205542,-35.96241,990.3914
3.772312164,-0.08827112,0.008725889,-0.1593278,-0.5388989,0.04326957,0.8160526,37.81531,-1.918056,-35.5053,990.3914
3.777230740,-0.02641421,0.067972,-0.03737263,-0.5374452,0.04234428,0.8140689,37.81531,-1.918056,-35.5053,990.3914
3.782148838,0.03542325,0.06796645,-0.03734914,-0.5339773,0.04277199,0.8189095,37.81531,-1.918056,-35.5053,990.3914
3.787067414,0.1590039,-0.05052372,-0.09828195,-0.5363738,0.04072763,0.8227478,37.81531,-1.918056,-35.5053,990.3896
3.791985512,-0.02648101,0.06799268,0.02361581,-0.5349795,0.0403986,0.8149573,37.81531,-1.918056,-35.5053,990.3896
3.796904087,-0.02646438,0.00871696,-0.03737446,-0.53888,0.04323329,0.8179935,37.81531,-1.918056,-35.5053,990.3896
3.804281235,0.1589262,0.06792317,0.02359791,-0.537842,0.03589458,0.8196918,37.81531,-1.918056,-35.5053,990.3896
3.809199333,-0.08836009,-0.1098,-0.0983295,-0.5349668,0.04230292,0.8174459,37.81531,-1.918056,-35.5053,990.3896
3.814117909,-0.0883628,0.008716509,0.0845054,-0.538892,0.04036319,0.8149883,37.81531,-1.918056,-35.5053,990.3896
3.819036007,-0.02652528,0.008692437,-0.03742195,-0.5364338,0.038914,0.8154072,37.81531,-1.918056,-35.5053,990.3896
3.823954582,-0.0264892,0.008649717,-0.03737931,-0.5364813,0.04238034,0.8126055,37.07273,-2.583899,-35.52752,990.3896
3.828872204,-0.1500949,0.1863434,-0.159211,-0.5325385,0.04283968,0.8159866,37.07273,-2.583899,-35.52752,990.3896
3.833790779,-0.1499812,0.06783468,-0.03729412,-0.5368994,0.04223987,0.8198875,37.07273,-2.583899,-35.52752,990.3896
3.838708878,-0.1498676,0.06781061,0.08460359,-0.5403334,0.04078292,0.8179268,37.07273,-2.583899,-35.52752,990.3896
3.843627453,-0.08795252,-0.1691456,0.02361331,-0.5354821,0.03945561,0.8129891,37.07273,-2.583899,-35.52752,990.3896
3.848545551,0.09748769,0.2455547,-0.1591747,-0.5407941,0.04072408,0.8208419,37.07273,-2.583899,-35.52752,990.3896
3.853464127,-0.08799738,0.06775727,0.02369848,-0.5359118,0.04223058,0.8208501,37.07273,-2.583899,-35.52752,990.3896
3.858382225,-0.02612125,-0.1692546,-0.09811412,-0.5330112,0.03991074,0.8158966,37.07273,-2.583899,-35.52752,990.3896
3.865759373,0.03570489,0.008548118,0.0237569,-0.5359205,0.04128295,0.8193632,37.07273,-2.583899,-35.52752,990.3879
3.870681763,-0.08790105,0.1862604,-0.03721433,-0.5369325,0.04230335,0.8164911,37.07273,-2.583899,-35.52752,990.3879
3.875596047,0.03571833,0.1861807,-0.2200024,-0.5398526,0.04224959,0.8179699,36.37902,-2.196562,-35.9647,990.3879
3.880514622,-0.08788767,-0.16926,-0.03712931,-0.5364658,0.04379725,0.8150785,36.37902,-2.196562,-35.9647,990.3879
3.885432720,-0.1496339,0.008433749,0.02383114,-0.5370091,0.04678988,0.8112946,36.37902,-2.196562,-35.9647,990.3879
3.890351296,0.03580623,0.06768008,-0.037121,-0.5364624,0.04234406,0.8145463,36.37902,-2.196562,-35.9647,990.3879
3.895268917,-0.08781922,-0.1100429,-0.09799652,-0.5389051,0.04521016,0.8166004,36.37902,-2.196562,-35.9647,990.3879
3.900187493,0.1594224,-0.110011,0.1457562,-0.5345014,0.04235269,0.815016,36.37902,-2.196562,-35.9647,990.3879
3.905105591,-0.02600446,0.06771997,0.02384776,-0.5379354,0.03752009,0.811005,36.37902,-2.196562,-35.9647,990.3837
3.910024166,-0.08778956,0.06775196,-0.03716178,-0.5393352,0.0421996,0.8208773,36.37902,-2.196562,-35.9647,990.3837
3.914942265,0.0358297,0.008476355,0.02379873,-0.5335706,0.04245224,0.8101563,36.37902,-2.196562,-35.9647,990.3837
3.919860840,-0.02595546,-0.05074342,0.02380294,-0.5344876,0.03653995,0.8128875,36.37902,-2.196562,-35.9647,990.3837
3.924778939,-0.02593919,-0.05074873,-0.03711088,-0.5369303,0.03940606,0.8149415,37.07231,-1.924473,-35.12383,990.3837
3.929697514,0.03589803,0.008460307,0.02383041,-0.5408452,0.0456436,0.8185724,37.07231,-1.924473,-35.12383,990.3837
3.934615612,-0.1495289,0.008492176,0.1456706,-0.5359882,0.04334147,0.8136033,37.07231,-1.924473,-35.12383,990.3837
3.939534188,-0.1494349,0.1269529,0.1455982,-0.5359685,0.04233941,0.8150277,37.07231,-1.924473,-35.12383,990.3837
3.944451809,-0.08755898,0.00838843,0.02367075,-0.5354756,0.04330055,0.8160255,37.07231,-1.924473,-35.12383,990.3837
3.951829434,-0.2111182,0.06776246,0.1454461,-0.5369731,0.04286334,0.8126251,37.07231,-1.924473,-35.12383,990.3837
3.956748009,-0.1492812,-0.0507276,-0.03736094,-0.5335009,0.04087208,0.816417,37.07231,-1.924473,-35.12383,990.3837
3.961665631,0.03617819,-0.1099659,-0.1591926,-0.5418499,0.04038199,0.8125855,37.07231,-1.924473,-35.12383,990.3837
3.966584206,-0.0256072,-0.05068239,0.02366139,-0.5374337,0.04280449,0.8155401,37.07231,-1.924473,-35.12383,990.3837
3.971502304,-0.0873343,-0.05070635,0.1455208,-0.5354357,0.04370634,0.820408,37.06479,-1.545073,-35.49568,990.3837
3.976420880,0.03630407,-0.0506373,-0.03738204,-0.5389442,0.04383861,0.8117015,37.06479,-1.545073,-35.49568,990.3837
3.981338978,-0.08726343,-0.10982,-0.2201125,-0.5374441,0.04716404,0.8171366,37.06479,-1.545073,-35.49568,990.3837
3.986257553,-0.08722799,-0.05055514,0.023736,-0.5393945,0.03942021,0.8130201,37.06479,-1.545073,-35.49568,990.3862
3.991175652,0.0982118,-0.169008,-0.09809574,-0.5379294,0.03895514,0.8125076,37.06479,-1.545073,-35.49568,990.3862
3.996093273,0.2217142,-0.05049162,0.08471988,-0.5384288,0.04331027,0.8141079,37.06479,-1.545073,-35.49568,990.3862
4.001012325,-0.02561151,0.06795029,-0.09808735,-0.5413494,0.04084662,0.8140529,37.06479,-1.545073,-35.49568,990.3862
4.005930901,0.09800752,-0.1690059,0.02381027,-0.5359793,0.04091344,0.81304,37.06479,-1.545073,-35.49568,990.3862
4.010848522,-0.08745846,0.1864427,-0.1589778,-0.5355169,0.04482628,0.812676,37.06479,-1.545073,-35.49568,990.3862
4.018226147,0.09802832,-0.2281224,-0.03704944,-0.5369238,0.04325099,0.817978,37.06479,-1.545073,-35.49568,990.3862
4.023144722,0.03616528,-0.3464638,0.145747,-0.5335024,0.04280362,0.81745,37.44659,-2.587069,-35.52671,990.3862
4.028062344,-0.08742155,-0.1093699,0.02383855,-0.5408795,0.04426298,0.8141586,37.44659,-2.587069,-35.52671,990.3862
4.032980919,-0.08734721,-0.2277673,0.206635,-0.5374569,0.04525971,0.814648,37.44659,-2.587069,-35.52671,990.3862
4.037899017,-0.02551028,-0.1684841,-0.1590986,-0.5374417,0.0408911,0.8135366,37.44659,-2.587069,-35.52671,990.3862
4.042817593,0.03630719,0.1277497,0.08473083,-0.5364144,0.0412876,0.8188819,37.44659,-2.587069,-35.52671,990.3862
4.047735691,-0.02549766,-0.04999245,0.08469674,-0.5384044,0.04229915,0.8160174,37.44659,-2.587069,-35.52671,990.3862
4.052654266,-0.08726373,-0.168334,0.145619,-0.5355027,0.04479907,0.8141316,37.44659,-2.587069,-35.52671,990.3862
4.057572365,0.03635518,-0.1682654,0.2674018,-0.5369616,0.04332355,0.8140963,37.44659,-2.587069,-35.52671,990.3862
4.062489986,0.0981144,-0.1089825,-0.03733705,-0.539873,0.04421741,0.817062,37.44659,-2.587069,-35.52671,990.3862
4.067409039,-0.02553074,0.009570665,-0.03737103,-0.5393902,0.04616243,0.817606,37.44659,-2.587069,-35.52671,990.3846
4.072330952,0.09808823,-0.1088828,0.0235896,-0.5344701,0.03843521,0.8158613,36.69607,-2.214085,-35.51709,990.3846
4.077245235,-0.02555691,0.1280805,-0.09826122,-0.533518,0.04476235,0.8170273,36.69607,-2.214085,-35.51709,990.3846
4.082163334,-0.08730352,-0.1088949,-0.09827605,-0.5330377,0.04381916,0.8155366,36.69607,-2.214085,-35.51709,990.3846
4.087081909,0.03627665,0.009602308,0.1455151,-0.5413116,0.04077407,0.8179346,36.69607,-2.214085,-35.51709,990.3846
4.092000008,-0.02550875,-0.1088511,0.1454811,-0.5330276,0.04283525,0.8159905,36.69607,-2.214085,-35.51709,990.3846
4.099377632,0.1599197,0.06893182,0.08448348,-0.5354721,0.04184735,0.8154933,36.69607,-2.214085,-35.51709,990.3846
4.104295731,-0.0255463,-0.04952163,0.02353158,-0.5369427,0.04328727,0.8160371,36.69607,-2.214085,-35.51709,990.3846
4.109214306,0.03619352,-0.1087608,0.02349766,-0.5388982,0.04230379,0.8155361,36.69607,-2.214085,-35.51709,990.3846
4.114132404,0.03622901,-0.1087298,-0.03741593,-0.5398885,0.04280051,0.8145891,36.69607,-2.214085,-35.51709,990.3846
4.119050503,-0.02559524,0.009767422,0.267255,-0.5388712,0.04418091,0.8194804,37.06443,-2.202373,-35.96322,990.3846
4.123969078,0.03622229,0.00970549,-0.03752203,-0.5394131,0.04524201,0.8146635,37.06443,-2.202373,-35.96322,990.3846
4.128886700,0.09800103,-0.1087667,0.08433754,-0.5388932,0.03891908,0.8139709,37.06443,-2.202373,-35.96322,990.3846
4.133805275,-0.211029,-0.04950253,0.08434199,-0.5388707,0.04659079,0.8210142,37.06443,-2.202373,-35.96322,990.3846
4.138723373,0.09799442,-0.1087417,-0.0376044,-0.536979,0.04142828,0.8111225,37.06443,-2.202373,-35.96322,990.3846
4.143641949,-0.2110356,0.009829918,-0.09849878,-0.5340402,0.04482142,0.8136348,37.06443,-2.202373,-35.96322,990.3846
4.148560047,-0.08735835,-0.04937211,0.02341825,-0.535435,0.04274057,0.8198915,37.06443,-2.202373,-35.96322,990.3885
4.153478622,-0.08728407,0.009929144,-0.03753359,-0.5383889,0.04371606,0.8184904,37.06443,-2.202373,-35.96322,990.3885
4.158396721,-0.02540834,0.00990428,0.1452248,-0.5359325,0.03841287,0.8163581,37.06443,-2.202373,-35.96322,990.3885
4.163315296,0.03637028,0.009935247,-0.2204127,-0.5359864,0.04719546,0.8161546,37.06443,-2.202373,-35.96322,990.3885
4.170692444,-0.08718926,-0.04923277,0.02344784,-0.5364391,0.03651318,0.813388,37.05929,-1.530191,-35.94262,990.3885
4.175611019,0.09826993,-0.0492391,-0.03748491,-0.5388685,0.0436935,0.8194647,37.05929,-1.530191,-35.94262,990.3885
4.180529118,0.03652321,0.06925786,-0.03751877,-0.5364327,0.04373376,0.8184749,37.05929,-1.530191,-35.94262,990.3885
4.185447216,-0.0871609,0.06921435,-0.09841321,-0.5379303,0.04329656,0.8150744,37.05929,-1.530191,-35.94262,990.3868
4.190365791,-0.08714493,-0.04927662,-0.03743337,-0.5403282,0.04318373,0.8199459,37.05929,-1.530191,-35.94262,990.3868
4.195283413,0.03647398,-0.1084415,-0.09836612,-0.5388867,0.04276401,0.8170074,37.05929,-1.530191,-35.94262,990.3868
4.200201988,0.0365093,0.128503,0.1453868,-0.5418357,0.04035478,0.8140411,37.05929,-1.530191,-35.94262,990.3868
4.205120087,0.03652516,-0.1676499,-0.03747767,-0.5393758,0.04275959,0.8170112,37.05929,-1.530191,-35.94262,990.3868
4.210038662,-0.02527982,0.2469935,0.02344473,-0.5344967,0.04234362,0.8155012,37.05929,-1.530191,-35.94262,990.3868
4.214956760,0.09833903,0.1876611,-0.159324,-0.5384333,0.03994369,0.8115724,37.05929,-1.530191,-35.94262,990.3868
4.219875336,0.09827724,-0.1086219,-0.09834418,-0.5359387,0.04035347,0.8169059,36.37388,-1.52438,-35.9441,990.3868
4.224793434,0.03643348,-0.04935787,0.1454853,-0.5363845,0.03930165,0.8207601,36.37388,-1.52438,-35.9441,990.3868
4.229712009,-0.02533264,0.06910202,0.1453748,-0.5374079,0.03986184,0.8164167,36.37388,-1.52438,-35.9441,990.3868
4.234630108,-0.02531672,-0.0493703,0.08436547,-0.5339638,0.04371054,0.8208816,36.37388,-1.52438,-35.9441,990.3868
4.239548683,0.03650063,0.009875236,0.02337532,-0.5447906,0.04567169,0.8152069,36.37388,-1.52438,-35.9441,990.3868
4.246925831,-0.02533524,0.06908043,-0.03754557,-0.5378932,0.04418977,0.8194726,36.37388,-1.52438,-35.9441,990.3868
4.251843929,-0.02528046,0.2467175,0.08437146,-0.5374148,0.04276822,0.817481,36.37388,-1.52438,-35.9441,990.3868
4.256762505,0.03651743,-0.1087984,-0.03757498,-0.5349484,0.03985676,0.8178529,36.37388,-1.52438,-35.9441,990.3868
4.261680126,-0.08710849,0.3058268,0.02338575,-0.5412712,0.04358974,0.8238509,36.37388,-1.52438,-35.9441,990.3868
4.266598702,-0.02525228,-0.168155,-0.03760434,-0.5359504,0.04326891,0.817485,36.37388,-1.52438,-35.9441,990.3912
4.271516800,0.160168,-0.04958333,0.1452116,-0.5379209,0.04327842,0.8160449,37.06993,-2.217255,-35.51628,990.3912
4.276435375,-0.1489205,-0.1088224,-0.09862824,-0.5404031,0.04236307,0.8116661,37.06993,-2.217255,-35.51628,990.3912
4.281353474,0.1601027,0.009712045,-0.03764829,-0.5311304,0.04585908,0.8117021,37.06993,-2.217255,-35.51628,990.3912
4.286272049,0.09825891,0.06892029,0.0232742,-0.5359318,0.0374471,0.8158416,37.06993,-2.217255,-35.51628,990.3912
4.291190147,-0.08720724,-0.1087477,0.08412015,-0.535432,0.0388775,0.8178255,37.06993,-2.217255,-35.51628,990.3912
4.296108723,0.03641167,-0.0494649,-0.03778781,-0.5325358,0.04235225,0.815971,37.06993,-2.217255,-35.51628,990.3912
4.301026821,-0.02537385,0.009761997,-0.03772578,-0.5403498,0.04370743,0.8180208,37.06993,-2.217255,-35.51628,990.3912
4.305945396,0.03640471,-0.04944003,-0.03770206,-0.536433,0.03794823,0.8148907,37.06993,-2.217255,-35.51628,990.3912
4.310863018,-0.02538081,0.1282342,-0.09863467,-0.5359808,0.04284498,0.8140729,37.06993,-2.217255,-35.51628,990.3895
4.318240643,-0.02537633,-0.1086699,-0.03758545,-0.5389054,0.03942463,0.8130162,37.43828,-2.205542,-35.96241,990.3895
4.323159218,0.2218261,0.009827319,0.02335614,-0.53594,0.03890935,0.8158885,37.43828,-2.205542,-35.96241,990.3895
4.328076840,0.0981032,-0.04943054,0.08429775,-0.5359225,0.04080461,0.8188624,37.43828,-2.205542,-35.96241,990.3895
4.332995415,0.0362401,0.0690107,-0.1595038,-0.5374021,0.04467253,0.8199696,37.43828,-2.205542,-35.96241,990.3895
4.337913513,-0.02560361,-0.1087132,0.0843067,-0.5334758,0.0388952,0.81781,37.43828,-2.205542,-35.96241,990.3895
4.342832089,0.1597781,0.06899838,-0.03756313,-0.5368994,0.04223987,0.8198875,37.43828,-2.205542,-35.96241,990.3895
4.347750187,-0.08746996,0.1281881,-0.09849582,-0.5374574,0.04284984,0.8131142,37.43828,-2.205542,-35.96241,990.3895
4.352668762,0.09791171,0.128089,0.02340206,-0.534452,0.0393647,0.8183186,37.43828,-2.205542,-35.96241,990.3895
4.357586861,-0.02571392,0.1280643,0.02344482,-0.535504,0.04335496,0.8131143,37.43828,-2.205542,-35.96241,990.3895
4.362505436,-0.02569776,-0.1681812,0.08436725,-0.5349849,0.04137343,0.8149886,37.43828,-2.205542,-35.96241,990.3895
4.367423534,0.09792132,-0.04966538,0.02343456,-0.5355112,0.0404758,0.8105943,37.44617,-1.927643,-35.12302,990.3895
4.372343063,0.03609719,-0.04963419,0.08429955,-0.5373728,0.04027671,0.8203139,37.44617,-1.927643,-35.12302,990.3895
4.377259731,-0.02572695,0.06884446,0.0232903,-0.5398479,0.04224052,0.8184551,37.44617,-1.927643,-35.12302,990.3895
4.384637356,0.03604053,0.06887249,0.1452192,-0.5393528,0.04368,0.8199538,37.44617,-1.927643,-35.12302,990.3895
4.389555931,0.03599849,-0.1680471,0.1452046,-0.5384295,0.04427604,0.8146244,37.44617,-1.927643,-35.12302,990.3912
4.394473553,-0.02582558,0.187438,-0.09861609,-0.5335444,0.04529512,0.814617,37.44617,-1.927643,-35.12302,990.3912
4.399392128,-0.02577057,-0.04957463,0.1452136,-0.5349715,0.04231199,0.8169607,37.44617,-1.927643,-35.12302,990.3912
4.404310227,0.09782917,0.009689555,0.1451798,-0.5354923,0.04043952,0.8125352,37.44617,-1.927643,-35.12302,990.3912
4.409228802,-0.1493799,-0.1088197,0.08418974,-0.5364761,0.04478115,0.8146246,37.44617,-1.927643,-35.12302,990.3912
4.414146900,0.09788094,0.1874324,0.02325717,-0.5373718,0.03593529,0.8177471,37.44617,-1.927643,-35.12302,990.3912
4.419065476,0.09780005,0.1281188,0.08410312,-0.5384273,0.04137873,0.8130749,37.06993,-2.217255,-35.51628,990.3912
4.423983574,0.03593712,-0.1088566,0.02317055,-0.5374504,0.04910465,0.8176844,37.06993,-2.217255,-35.51628,990.3912
4.428902149,0.03587575,-0.1088254,0.02315602,-0.5388921,0.04373885,0.8170387,37.06993,-2.217255,-35.51628,990.3955
4.433820248,-0.08773031,0.009671812,0.1450158,-0.5301042,0.04481147,0.8160299,37.06993,-2.217255,-35.51628,990.3955
4.438738823,-0.08771398,0.009703004,0.02308864,-0.5413454,0.04180332,0.8150546,37.06993,-2.217255,-35.51628,990.3955
4.446115971,-0.02590753,0.009675202,-0.09884565,-0.5364547,0.03847193,0.8129656,37.06993,-2.217255,-35.51628,990.3955
4.451034069,-0.02583301,0.009724928,0.02310986,-0.5398676,0.04324258,0.8170307,37.06993,-2.217255,-35.51628,990.3955
4.455952644,0.03594584,0.06893317,-0.03784181,-0.537953,0.03900048,0.8100816,37.06993,-2.217255,-35.51628,990.3955
4.460870266,-0.2112632,0.009675428,-0.03783719,-0.5408618,0.04278259,0.815082,37.06993,-2.217255,-35.51628,990.3955
4.465788841,0.03597833,0.009650678,-0.1596686,-0.5359221,0.04321449,0.8203962,36.68823,-1.893666,-35.95467,990.3955
4.470706940,0.036014,-0.04951394,0.0231666,-0.5403748,0.04230866,0.8145773,36.68823,-1.893666,-35.95467,990.3955
4.475625515,-0.02581008,0.06900177,0.02320947,-0.5379059,0.04228543,0.8169839,36.68823,-1.893666,-35.95467,990.3955
4.480543614,-0.1493385,-0.1087407,-0.03772311,-0.5344831,0.03990654,0.815423,36.68823,-1.893666,-35.95467,990.3955
4.485462189,0.03610149,0.06904528,0.08415573,-0.534437,0.03837173,0.8192577,36.68823,-1.893666,-35.95467,990.3955
4.490380287,0.09791908,0.2466823,-0.03773313,-0.5354432,0.04420282,0.8199385,36.68823,-1.893666,-35.95467,990.3955
4.495298863,-0.08748864,-0.04956333,-0.09864655,-0.5300652,0.03702185,0.8152942,36.68823,-1.893666,-35.95467,990.3955
4.500216961,0.159714,0.06887802,0.02327054,-0.5408394,0.04129312,0.8164908,36.68823,-1.893666,-35.95467,990.3955
4.505135536,0.0360107,-0.1088642,0.08417393,-0.535473,0.04618877,0.8180603,36.68823,-1.893666,-35.95467,990.3955
4.510053158,-0.02585223,-0.04954423,-0.09869038,-0.538339,0.04313795,0.8233268,36.68823,-1.893666,-35.95467,990.3955
4.517430782,-0.08753227,-0.04955339,-0.03773683,-0.5374852,0.04531413,0.8117368,37.05971,-2.189617,-36.34631,990.3955
4.522349358,0.1597092,-0.04946637,0.08416117,-0.53644,0.0408546,0.815955,37.05971,-2.189617,-36.34631,990.3955
4.527266979,-0.1493596,-0.1086683,0.08410829,-0.5369521,0.04330541,0.8150667,37.05971,-2.189617,-36.34631,990.3955
4.532185555,0.03613858,0.1283134,-0.1596357,-0.5369217,0.04372934,0.8184788,37.05971,-2.189617,-36.34631,990.3955
4.537103653,-0.02560797,-0.04946625,0.02323775,-0.5360022,0.03999303,0.8100974,37.05971,-2.189617,-36.34631,990.3955
4.542022228,-0.1491949,-0.04941664,-0.09859371,-0.5394091,0.04619871,0.8156651,37.05971,-2.189617,-36.34631,990.3955
4.546940327,-0.08735788,-0.04938567,0.08426052,-0.5388684,0.04031784,0.8174143,37.05971,-2.189617,-36.34631,990.3955
4.551858902,0.03628054,0.0691114,0.1451447,-0.5345348,0.04579183,0.8136699,37.05971,-2.189617,-36.34631,990.3939
4.556777001,0.03625778,-0.1085939,-0.03773874,-0.5364413,0.03941048,0.8149377,37.05971,-2.189617,-36.34631,990.3939
4.561695576,0.03625442,0.06915479,-0.09869047,-0.535978,0.04235755,0.8140572,37.05971,-2.189617,-36.34631,990.3939
4.566613197,0.03625106,0.1283444,-0.03767218,-0.5418317,0.04131148,0.8150429,37.44145,-1.914887,-35.50611,990.3939
4.571532250,0.0362477,0.009797709,-0.03761021,-0.5378712,0.03691477,0.817297,37.44145,-1.914887,-35.50611,990.3939
4.576449871,-0.1491795,0.1283134,0.02329312,-0.5413994,0.04142474,0.8092165,37.44145,-1.914887,-35.50611,990.3939
4.583827496,-0.02557189,0.06897804,0.0232903,-0.5373934,0.04562017,0.8214565,37.44145,-1.914887,-35.50611,990.3939
4.588746071,0.03622624,0.06895329,-0.03768064,-0.5354845,0.04572856,0.816589,37.44145,-1.914887,-35.50611,990.3922
4.593663693,-0.08738004,-0.0495188,-0.0986324,-0.5384524,0.04335562,0.8116819,37.44145,-1.914887,-35.50611,990.3922
4.598582268,0.03623898,0.1282114,0.1451398,-0.5388867,0.04276401,0.8170074,37.44145,-1.914887,-35.50611,990.3922
4.603500366,-0.1491493,-0.1087828,-0.09862333,-0.5369447,0.04280892,0.8155363,37.44145,-1.914887,-35.50611,990.3922
4.608418942,-0.02549153,0.1282176,0.02327461,-0.5374405,0.0423352,0.8145541,37.44145,-1.914887,-35.50611,990.3922
4.613337040,0.03630649,-0.04948761,-0.03765803,-0.5364022,0.04078204,0.8198366,37.43595,-1.900005,-35.95305,990.3922
4.618255615,0.09810456,-0.227137,0.02330277,-0.5359546,0.04568786,0.8185337,37.43595,-1.900005,-35.95305,990.3922
4.623173714,0.03626091,0.009826188,-0.03764902,-0.5374434,0.04619827,0.8166202,37.43595,-1.900005,-35.95305,990.3922
4.628092289,0.0362964,-0.04937584,-0.03758708,-0.5384362,0.04380676,0.8136383,37.43595,-1.900005,-35.95305,990.3922
4.633009911,-0.02552785,0.1282984,-0.03762088,-0.5349255,0.04077718,0.8207955,37.43595,-1.900005,-35.95305,990.3922
4.637929440,0.1598926,-0.1679101,0.1452333,-0.5374135,0.04421233,0.8184983,37.43595,-1.900005,-35.95305,990.3922
4.642846584,0.03616982,-0.1085902,0.02326777,-0.5369288,0.03747452,0.8139085,37.43595,-1.900005,-35.95305,990.3922
4.647764683,0.09792916,0.128317,-0.03766486,-0.5365017,0.04434815,0.8116977,37.43595,-1.900005,-35.95305,990.3922
4.652683258,-0.02569647,-0.1678543,0.02329594,-0.5315415,0.04281225,0.8179197,37.43595,-1.900005,-35.95305,990.3922
4.657601357,0.09794202,0.009894336,0.08425674,-0.5350034,0.0438196,0.8145817,37.43595,-1.900005,-35.95305,990.3922
4.664978981,0.03616469,0.009847887,0.02337419,-0.5393272,0.044113,0.8228806,37.05971,-2.189617,-36.34631,990.3922
4.669897080,0.03608375,0.06909332,0.08427752,-0.5340469,0.04435214,0.8126488,37.05971,-2.189617,-36.34631,990.3904
4.674815655,0.1597029,0.009798274,0.02332573,-0.5389193,0.04523737,0.8151448,37.05971,-2.189617,-36.34631,990.3904
4.679733753,0.03599961,0.009829353,0.08422907,-0.5422997,0.03837347,0.815438,37.05971,-2.189617,-36.34631,990.3904
4.684652329,-0.08762596,-0.1086243,0.02321987,-0.5403762,0.04424019,0.8156103,37.05971,-2.189617,-36.34631,990.3904
4.689570427,-0.08760975,0.1283202,-0.09863071,-0.5388745,0.04225844,0.8179622,37.05971,-2.189617,-36.34631,990.3904
4.694489002,-0.1493562,0.2467056,-0.09860705,-0.5379057,0.03890979,0.8149336,37.05971,-2.189617,-36.34631,990.3904
4.699412346,-0.08753853,0.0689073,0.08420889,-0.5398501,0.04513782,0.8200046,37.05971,-2.189617,-36.34631,990.3904
4.704325676,0.03615821,-0.04958345,-0.03762257,-0.5383354,0.04168476,0.8227946,37.05971,-2.189617,-36.34631,990.3904
4.709243298,0.0361743,0.06885802,-0.1594541,-0.5383902,0.04227194,0.8174731,37.05971,-2.189617,-36.34631,990.3904
4.714161396,-0.08739308,-0.04968855,0.1453509,-0.5359216,0.03646319,0.8162955,37.43034,-1.166716,-35.93058,990.3931
4.719079971,-0.1491396,0.1872747,0.2061968,-0.536483,0.04768752,0.8156888,37.43034,-1.166716,-35.93058,990.3931
4.726457119,0.03636644,-0.1088808,0.2060982,-0.5394447,0.04337397,0.8102341,37.43034,-1.166716,-35.93058,990.3931
4.731375694,0.03632417,0.1873342,-0.03772241,-0.5315649,0.03948195,0.8134432,37.43034,-1.166716,-35.93058,990.3931
4.736299038,0.03630136,-0.04967838,-0.03769869,-0.5369439,0.04184315,0.8150198,37.43034,-1.166716,-35.93058,990.3931
4.741212368,-0.0255229,-0.1681133,0.02322386,-0.537461,0.04767866,0.8156966,37.43034,-1.166716,-35.93058,990.3931
4.746130467,-0.08730835,0.009635534,-0.09864586,-0.5379054,0.04469531,0.8185179,37.43034,-1.166716,-35.93058,990.3931
4.751049042,-0.02549088,0.1281328,0.02323298,-0.5368838,0.04028113,0.8203101,37.43034,-1.166716,-35.93058,990.3914
4.755967140,-0.08725695,-0.1681128,0.08417469,-0.5354609,0.04568321,0.819015,37.43034,-1.166716,-35.93058,990.3914
4.760885716,-0.08726037,0.009710463,-0.09865132,-0.5340338,0.03950517,0.8110366,37.43034,-1.166716,-35.93058,990.3914
4.765803337,0.0363974,0.068863,-0.03770962,-0.5354368,0.03888657,0.8173403,37.43595,-1.900005,-35.95305,990.3914
4.770722389,0.03643277,0.06885701,-0.09864222,-0.5374228,0.04085482,0.8154775,37.43595,-1.900005,-35.95305,990.3914
4.775640011,-0.08715418,0.009599257,0.08421203,-0.5408071,0.04219539,0.8204036,37.43595,-1.900005,-35.95305,990.3914
4.780558109,0.09828556,-0.04963984,-0.2205074,-0.5354288,0.04079996,0.8193437,37.43595,-1.900005,-35.95305,990.3914
4.787936211,0.2218153,-0.04968606,-0.03758394,-0.5374039,0.04081854,0.8174183,37.43595,-1.900005,-35.95305,990.3914
4.792853832,-0.1490551,-0.04967352,0.08425653,-0.5369061,0.04177059,0.8189014,37.43595,-1.900005,-35.95305,990.3896
4.797772408,-0.08721827,0.06880513,-0.09862699,-0.5374874,0.04821143,0.8132863,37.43595,-1.900005,-35.95305,990.3896
4.802690506,-0.08716344,0.06881779,0.0232901,-0.5379519,0.04382025,0.8131493,37.43595,-1.900005,-35.95305,990.3896
4.807609081,0.03655251,-0.1681761,0.02325632,-0.5339969,0.04377403,0.8174852,37.43595,-1.900005,-35.95305,990.3896
4.812527180,0.03643247,0.1280761,0.02327998,-0.5373939,0.04321029,0.8199226,37.07273,-2.583899,-35.52752,990.3896
4.817445755,0.03644845,-0.1088806,-0.0376718,-0.5335417,0.0448077,0.8146014,37.07273,-2.583899,-35.52752,990.3896
4.822363854,0.09820762,0.009635195,0.02328899,-0.5329837,0.04419774,0.8213747,37.07273,-2.583899,-35.52752,990.3896
4.827281475,-0.02541819,-0.1087996,-0.09858078,-0.5370001,0.04436187,0.8107311,37.07273,-2.583899,-35.52752,990.3896
4.832200051,0.1599828,0.009697579,-0.09855711,-0.5345238,0.04384216,0.8136073,37.07273,-2.583899,-35.52752,990.3862
4.837118149,0.0980808,-0.1087932,0.02334082,-0.5403295,0.04173961,0.8189285,37.07273,-2.583899,-35.52752,990.3862
4.842036724,0.09799979,-0.04947315,0.02334532,-0.5394036,0.04522387,0.8156338,37.07273,-2.583899,-35.52752,990.3862
4.846954823,-0.08740793,0.1282197,0.02331152,-0.5354958,0.0418927,0.8130674,37.07273,-2.583899,-35.52752,990.3862
4.854332924,-0.1491853,-0.167843,0.08416928,-0.5393798,0.04180288,0.8160095,37.07273,-2.583899,-35.52752,990.3862
4.859250546,0.03629345,-0.04929006,-0.03777705,-0.5359598,0.04328705,0.8165146,37.07273,-2.583899,-35.52752,990.3862
4.864169121,0.03621239,0.06916983,0.0231838,-0.5355005,0.04190177,0.8125821,36.68543,-1.527021,-35.94343,990.3862
4.869087219,0.09802992,0.009911853,-0.03778702,-0.5378617,0.03689663,0.8182675,36.68543,-1.527021,-35.94343,990.3862
4.874005795,-0.08733895,-0.04927153,-0.1596759,-0.5369434,0.04425303,0.8165537,36.68543,-1.527021,-35.94343,990.3845
4.878923893,-0.1491244,-0.04924057,-0.03775871,-0.5364402,0.04423025,0.8180054,36.68543,-1.527021,-35.94343,990.3845
4.883842468,-0.02548599,-0.04915377,-0.2205273,-0.5399061,0.0442809,0.8136656,36.68543,-1.527021,-35.94343,990.3845
4.888760567,0.03631203,-0.0491601,0.08418212,-0.5393472,0.03932951,0.8178722,36.68543,-1.527021,-35.94343,990.3845
4.893678189,-0.02549283,0.247036,0.08414838,-0.5364679,0.0433189,0.8145776,36.68543,-1.527021,-35.94343,990.3845
4.898596764,0.09808728,0.009967229,0.08411466,-0.535485,0.04331869,0.8150551,36.68543,-1.527021,-35.94343,990.3845
4.903514862,0.03626303,0.06921266,-0.2814845,-0.5368721,0.03736569,0.8197309,36.68543,-1.527021,-35.94343,990.3845
4.908433438,-0.08740151,0.009991979,0.02330149,-0.5368991,0.03886422,0.8178371,36.68543,-1.527021,-35.94343,990.3845
4.913351536,0.09805781,0.06920023,-0.09858743,-0.5350039,0.04140971,0.8130478,37.06479,-1.545073,-35.49568,990.3845
4.918270111,-0.08736937,0.06913818,-0.09856378,-0.5398688,0.04179845,0.8160134,37.06479,-1.545073,-35.49568,990.3845
4.923188210,0.09808994,-0.108474,-0.09854014,-0.5399502,0.04629405,0.8103318,37.06479,-1.545073,-35.49568,990.3845
4.930565834,-0.02554719,0.0692156,0.02331216,-0.5320323,0.03895382,0.8153723,37.06479,-1.545073,-35.49568,990.3845
4.935487747,-0.1491341,0.06915355,0.1451144,-0.539397,0.03653198,0.8109853,37.06479,-1.545073,-35.49568,990.3845
4.940402508,-0.1490404,-0.04943043,0.02320636,-0.5358782,0.04457697,0.8257805,37.06479,-1.545073,-35.49568,990.3845
4.945320606,0.09820089,0.06915977,0.1450852,-0.5398968,0.0476384,0.8166865,37.06479,-1.545073,-35.49568,990.3845
4.950239182,-0.272689,0.06909772,-0.2205905,-0.5344661,0.03939191,0.8168629,37.06479,-1.545073,-35.49568,990.3845
4.955157280,-0.02535068,0.06905433,0.08415721,-0.5359173,0.04320543,0.8208814,37.06479,-1.545073,-35.49568,990.3845
4.960074902,-0.02535416,0.1282439,-0.2205239,-0.5374412,0.04330098,0.8150706,37.44379,-2.220424,-35.51547,990.3845
4.964996815,-0.2107232,0.009734535,-0.0376314,-0.5384253,0.04185708,0.8135757,37.44379,-2.220424,-35.51547,990.3845
4.969911576,-0.02520588,-0.04946738,-0.0376269,-0.5374236,0.04182058,0.8159941,37.44379,-2.220424,-35.51547,990.3845
4.974830151,0.03663087,-0.04945484,0.02339131,-0.5383822,0.04418534,0.8194765,37.44379,-2.220424,-35.51547,990.3845
4.979748249,-0.1487965,0.009772055,-0.09845936,-0.537891,0.04129246,0.8179231,37.44379,-2.220424,-35.51547,990.3845
4.987126351,-0.08695202,0.009744254,0.02345025,-0.5359362,0.0432417,0.8189406,37.44379,-2.220424,-35.51547,990.3845
4.992046833,0.03668611,0.009756798,-0.1593759,-0.5403364,0.04464598,0.8199928,37.44379,-2.220424,-35.51547,990.3889
4.996965408,0.160266,-0.04950095,0.02351652,-0.5389146,0.0452283,0.81563,37.44379,-2.220424,-35.51547,990.3889
5.001880646,-0.02520023,0.00976324,-0.1592905,-0.5354808,0.04089973,0.8140064,37.44379,-2.220424,-35.51547,990.3889
5.006799221,-0.02518442,-0.108709,0.1455335,-0.5320268,0.03797898,0.815341,37.44379,-2.220424,-35.51547,990.3889
5.011717319,-0.1488104,-0.04946343,0.02362529,-0.5369684,0.04285427,0.8131103,37.43314,-1.53336,-35.94181,990.3889
5.016635895,0.03670686,0.06901511,0.08452845,-0.5359265,0.03984791,0.8178607,37.43314,-1.53336,-35.94181,990.3889
5.021558285,-0.02511768,0.009738716,-0.0373798,-0.53939,0.04278679,0.8155556,37.43314,-1.53336,-35.94181,990.3889
5.026471615,0.0367384,0.06892843,0.08447967,-0.5344542,0.042262,0.8198681,37.43314,-1.53336,-35.94181,990.3889
5.031390190,0.16026,-0.1087768,-0.09838481,-0.5349979,0.04284476,0.8145504,37.43314,-1.53336,-35.94181,990.3889
5.036308289,-0.02520624,-0.1086899,-0.03736673,-0.5354179,0.03885029,0.8192811,37.43314,-1.53336,-35.94181,990.3871
5.041226864,-0.08703072,0.009825849,-0.0374007,-0.5340415,0.04337731,0.8126175,37.43314,-1.53336,-35.94181,990.3871
5.046145439,0.09840889,0.06899691,0.02355992,-0.5384077,0.04037669,0.8144993,37.43314,-1.53336,-35.94181,990.3871
5.051063538,-0.08707677,-0.1086711,0.023526,-0.536938,0.0432782,0.8165224,37.43314,-1.53336,-35.94181,990.3871
5.055981636,-0.1488236,0.2467395,-0.03744506,-0.5408599,0.04326093,0.8155829,37.43314,-1.53336,-35.94181,990.3871
5.060900211,-0.02512712,-0.04945032,-0.03744067,-0.5320634,0.03949566,0.8124768,37.05971,-2.189617,-36.34631,990.3871
5.065817833,0.03665132,0.009795222,-0.09835429,-0.5349159,0.03738339,0.8197155,37.05971,-2.189617,-36.34631,990.3871
5.073195934,-0.1487099,0.1875409,-0.03740108,-0.5339766,0.04180621,0.818393,37.05971,-2.189617,-36.34631,990.3871
5.078114033,0.09856997,0.009705377,0.1453956,-0.5394089,0.04282307,0.8136147,37.05971,-2.189617,-36.34631,990.3871
5.083032608,-0.08685751,-0.04955237,0.1453616,-0.532989,0.04179692,0.8193557,37.05971,-2.189617,-36.34631,990.3871
5.087950707,0.2221267,0.009693172,0.02343435,-0.5369201,0.03842215,0.8153954,37.05971,-2.189617,-36.34631,990.3871
5.092868328,-0.2723275,0.06890142,-0.1593535,-0.5399103,0.04669984,0.8147143,37.05971,-2.189617,-36.34631,990.3871
5.097786903,0.1603762,-0.2273071,0.02351975,-0.5354801,0.03993396,0.8134899,37.05971,-2.189617,-36.34631,990.3871
5.102705002,0.03667249,0.06898222,0.08444212,-0.5350054,0.04334125,0.8140808,37.05971,-2.189617,-36.34631,990.3871
5.107623577,-0.02517145,-0.04945269,-0.09840321,-0.5364422,0.0437519,0.8175045,37.06479,-1.545073,-35.49568,990.3871
5.112541676,-0.0251168,0.009867325,-0.09837966,-0.5354404,0.04371541,0.8199228,37.06479,-1.545073,-35.49568,990.3871
5.117460251,-0.02513985,0.1283272,0.0235564,-0.5383995,0.03891443,0.8144523,37.06479,-1.545073,-35.49568,990.3854
5.122378349,0.03665804,0.009780531,-0.1592507,-0.5378957,0.04130153,0.8174379,37.06479,-1.545073,-35.49568,990.3854
5.127296925,0.1601991,-0.1086545,0.1454968,-0.5408437,0.04371207,0.8175393,37.06479,-1.545073,-35.49568,990.3854
5.132214546,-0.08708797,-0.04931606,0.0235694,-0.5345062,0.04236176,0.8145308,37.06479,-1.545073,-35.49568,990.3854
5.139592171,-0.2106477,0.1283365,-0.1592451,-0.5364341,0.04228964,0.8174576,37.06479,-1.545073,-35.49568,990.3854
5.144510746,0.03667113,-0.04938748,0.02362811,-0.5349805,0.04474001,0.8175242,37.06479,-1.545073,-35.49568,990.3854
5.149428844,0.1602705,0.009858058,0.1455067,-0.5388523,0.04414464,0.8214211,37.06479,-1.545073,-35.49568,990.3854
5.154347420,0.09840713,0.06910349,0.02357928,-0.5354475,0.03746059,0.8153525,37.06479,-1.545073,-35.49568,990.3837
5.159265041,-0.08705908,0.1875447,-0.09827154,-0.533491,0.04326383,0.8189213,37.44109,-2.572187,-35.97365,990.3837
5.164183617,-0.02520294,-0.04943088,0.02364532,-0.5408342,0.04369393,0.8185098,37.44109,-2.572187,-35.97365,990.3837
5.169101715,-0.02520653,-0.1086701,0.02361134,-0.5364955,0.04240754,0.8111499,37.44109,-2.572187,-35.97365,990.3837
5.174020290,-0.08697271,-0.04938748,0.2063696,-0.537434,0.04618014,0.8175905,37.44109,-2.572187,-35.97365,990.3837
5.178938389,-0.2723419,-0.1678039,0.08440398,-0.5383882,0.0427503,0.817974,37.44109,-2.572187,-35.97365,990.3837
5.183856964,-0.08686347,-0.04930679,-0.03748505,-0.5349462,0.03695946,0.8163034,37.44109,-2.572187,-35.97365,990.3837
5.188775063,-0.08684772,0.1283861,0.02349478,-0.5393807,0.0461443,0.8185764,37.44109,-2.572187,-35.97365,990.3837
5.193693638,0.03675155,0.06914689,-0.03739969,-0.5403941,0.04909623,0.8167373,37.44109,-2.572187,-35.97365,990.3821
5.198611260,-0.0250148,-0.04930679,-0.03739535,-0.5378626,0.04123804,0.8208343,37.44109,-2.572187,-35.97365,990.3821
5.203530312,-0.02499912,-0.1085275,0.084445,-0.5364986,0.04964626,0.8152663,37.44109,-2.572187,-35.97365,990.3821
5.208447933,-0.08680427,-0.04926351,-0.03740576,-0.5379477,0.0414013,0.8121006,36.69607,-2.214085,-35.51709,990.3821
5.213366509,0.0368144,-0.226913,-0.03738227,-0.5359442,0.0413283,0.8169371,36.69607,-2.214085,-35.51709,990.3821
5.218284607,0.09863158,0.0693016,0.08453464,-0.5384119,0.04279564,0.8155479,36.69607,-2.214085,-35.51709,990.3821
5.225661755,-0.02514192,-0.04915524,0.145507,-0.5364674,0.04572878,0.8161115,36.69607,-2.214085,-35.51709,990.3821
5.230580330,-0.02514551,-0.1083202,-0.03739585,-0.5349371,0.04369263,0.8213745,36.69607,-2.214085,-35.51709,990.3821
5.235498428,-0.08691181,0.1286055,-0.03737237,-0.5324979,0.04227969,0.8198527,36.69607,-2.214085,-35.51709,990.3777
5.240417004,0.03672632,0.01009584,0.02358826,-0.5373477,0.03829983,0.821707,36.69607,-2.214085,-35.51709,990.3777
5.245339871,-0.02511763,0.1284998,0.02357344,-0.5354532,0.04181108,0.8174342,36.69607,-2.214085,-35.51709,990.3777
5.250253677,-0.1487436,0.06924181,-0.09829651,-0.5334509,0.04029397,0.8212534,36.69607,-2.214085,-35.51709,990.3777
5.255171776,-0.08684867,0.2468789,0.145533,-0.5360153,0.04483999,0.8117095,36.69607,-2.214085,-35.51709,990.3777
5.260090351,-0.02497324,0.1282577,-0.2201047,-0.5364704,0.04043067,0.8125429,37.06723,-2.569017,-35.97446,990.3777
5.265007973,-0.02499641,0.009729675,-0.03723159,-0.5403755,0.04327443,0.8150938,37.06723,-2.569017,-35.97446,990.3777
5.269927025,-0.02496127,0.06891939,0.0846278,-0.5389054,0.03942463,0.8130162,37.06723,-2.569017,-35.97446,990.3777
