Time (s),Gyroscope X (deg/s),Gyroscope Y (deg/s),Gyroscope Z (deg/s),Accelerometer X (g),Accelerometer Y (g),Accelerometer Z (g),Magnetometer X (uT),Magnetometer Y (uT),Magnetometer Z (uT),Barometer (hPa)
0.000000000,-0.05013361,-0.06654543,0.1578076,-0.55677,0.06290625,0.8008062,19.79807,-15.16924,-29.75585,990.3851
0.004918575,-0.05008267,-0.3033985,-0.02504555,-0.5562296,0.06040103,0.8046057,19.79807,-15.16924,-29.75585,990.3851
0.009836674,0.07351289,-0.007061312,-0.02502986,-0.5562291,0.06281091,0.8061396,19.79807,-15.16924,-29.75585,990.3851
0.014755249,-0.1118989,-0.1255044,0.2187153,-0.5573098,0.0644457,0.7964902,19.79807,-15.16924,-29.75585,990.3851
0.019673347,0.01171611,-0.2438916,0.2795151,-0.5630049,0.05345175,0.8078373,19.79807,-15.16924,-29.75585,990.3851
0.024591923,0.07349078,-0.1845612,0.4011755,-0.5582656,0.06294739,0.7979066,19.79807,-15.16924,-29.75585,990.3834
0.029510498,0.07342522,-0.1844824,0.1572515,-0.5567569,0.05805928,0.7991942,19.79807,-15.16924,-29.75585,990.3834
0.034428597,0.07341797,-0.1843664,0.2180707,-0.5557864,0.07110144,0.8064018,19.79807,-15.16924,-29.75585,990.3834
0.041806221,0.01160557,-0.2435002,0.1569855,-0.5625895,0.05407963,0.800571,19.79807,-15.16924,-29.75585,990.3834
0.046724796,0.135143,-0.06566674,0.03507003,-0.5572429,0.06335296,0.8027666,19.79807,-15.16924,-29.75585,990.3834
0.051642895,0.1968984,-0.1248585,0.27872,-0.5591715,0.06424661,0.8062098,19.80829,-15.19687,-28.92582,990.3834
0.056561470,0.0731523,-0.006276772,0.2176078,-0.5577502,0.06241905,0.8003132,19.80829,-15.19687,-28.92582,990.3834
0.061479568,-0.05043836,0.05294165,0.2784082,-0.5582322,0.05950826,0.7992527,19.80829,-15.19687,-28.92582,990.386
0.066398144,-0.05038724,-0.1840237,0.2173536,-0.5577327,0.06431431,0.803287,19.80829,-15.19687,-28.92582,990.386
0.071316719,0.1350488,0.1122571,0.03444394,-0.5562627,0.06046452,0.8012093,19.80829,-15.19687,-28.92582,990.386
0.076234818,0.01138041,-0.1246525,0.3999686,-0.5568019,0.06441385,0.7984272,19.80829,-15.19687,-28.92582,990.386
0.081153393,-0.1740117,-0.1245741,0.1560262,-0.5601768,0.05657512,0.7986891,19.80829,-15.19687,-28.92582,990.386
0.086071968,0.01146319,-0.2429619,0.09499104,-0.5602031,0.06626906,0.8019133,19.80829,-15.19687,-28.92582,990.386
0.090990067,0.07323803,-0.06514744,0.2777428,-0.5557784,0.06385366,0.8027706,19.80829,-15.19687,-28.92582,990.386
0.095908642,0.1349935,-0.06508789,0.09477606,-0.5567086,0.06278835,0.8071139,19.80829,-15.19687,-28.92582,990.386
0.100827217,0.134967,-0.06504698,0.3993831,-0.5592268,0.06242391,0.7993543,20.18215,-15.20004,-28.92501,990.386
0.108204365,-0.112269,-0.005808557,0.216291,-0.557736,0.06239185,0.8017688,20.18215,-15.20004,-28.92501,990.3843
0.113122940,-0.05045528,-0.005749112,0.2161551,-0.5606267,0.05794225,0.8035919,20.18215,-15.20004,-28.92501,990.3843
0.118041515,-0.05042356,-0.3018176,0.03318875,-0.5601894,0.06383198,0.8018351,20.18215,-15.20004,-28.92501,990.3843
0.122959614,-0.1740142,-0.3016466,0.1550613,-0.5543402,0.06151147,0.7983139,20.18215,-15.20004,-28.92501,990.3843
0.127878189,-0.05032139,-0.301513,0.2158628,-0.5567551,0.06191328,0.8017454,20.18215,-15.20004,-28.92501,990.3843
0.132796288,-0.05028979,-0.242072,-0.02802147,-0.5572429,0.06335296,0.8027666,20.18215,-15.20004,-28.92501,990.3843
0.137714863,-0.1738611,-0.06423938,0.1547884,-0.5582747,0.06875107,0.8005205,20.18215,-15.20004,-28.92501,990.3843
0.142633438,-0.1119504,-0.06419893,0.1547103,-0.561622,0.06182368,0.8042101,20.18215,-15.20004,-28.92501,990.3826
0.147551537,-0.1737204,-0.06417722,-0.08913542,-0.5596855,0.06284342,0.8027703,19.80919,-15.91741,-29.33138,990.3826
0.152470112,-0.05000827,-0.06415553,0.09369376,-0.5571852,0.05890272,0.8060222,19.80919,-15.91741,-29.33138,990.3826
0.157388687,0.1353693,-0.182544,0.09361574,-0.5592375,0.06099793,0.7973666,19.80919,-15.91741,-29.33138,990.3826
0.162306786,0.01173952,-0.1232148,0.03260068,-0.5562744,0.06337996,0.8017884,19.80919,-15.91741,-29.33138,990.3826
0.167225361,-0.05008874,-0.004671302,0.215315,-0.5650568,0.06133249,0.8027659,19.80919,-15.91741,-29.33138,990.3826
0.172143936,0.07352621,-0.1230973,0.03244494,-0.5548126,0.06436807,0.8018081,19.80919,-15.91741,-29.33138,990.3826
0.179526329,0.01173303,-0.004440867,0.1542887,-0.561125,0.05458033,0.800575,19.80919,-15.91741,-29.33138,990.3826
0.184439659,0.0117256,-0.004382326,0.03235577,-0.5611591,0.05898523,0.7997454,19.80919,-15.91741,-29.33138,990.3835
0.189357758,-0.1118653,-0.06361261,0.2150894,-0.5548604,0.06204889,0.7954222,19.80919,-15.91741,-29.33138,990.3835
0.194276333,-0.1118144,-0.3004303,0.2149926,-0.5552559,0.05704331,0.8020625,19.80919,-15.91741,-29.33138,990.3835
0.199194908,-0.04992331,-0.06338398,0.09296408,-0.5601899,0.06142208,0.8003012,20.18034,-16.27234,-29.78875,990.3835
0.204113007,-0.111674,-0.1225585,0.09290572,-0.558717,0.06624606,0.8038425,20.18034,-16.27234,-29.78875,990.3835
0.209031582,0.01197965,-0.004034131,0.2146833,-0.5587168,0.06287041,0.8017921,20.18034,-16.27234,-29.78875,990.3835
0.213950157,0.01201096,-0.2409264,0.09271248,-0.5606477,0.05750018,0.8011503,20.18034,-16.27234,-29.78875,990.3835
0.218868256,-0.235183,-0.06311332,0.09265423,-0.5582048,0.06379525,0.8047308,20.18034,-16.27234,-29.78875,990.3835
0.223786831,-0.04965028,-0.2407728,0.3972434,-0.5606976,0.06723947,0.8019485,20.18034,-16.27234,-29.78875,990.3818
0.228710651,0.1358047,-0.1814071,-0.02948955,-0.5577327,0.06431431,0.803287,20.18034,-16.27234,-29.78875,990.3818
0.233623028,-0.1114282,-0.1220602,0.1533213,-0.5596778,0.05897129,0.8011894,20.18034,-16.27234,-29.78875,990.3818
0.238541603,-0.2349611,-0.003517434,0.1532441,-0.5626148,0.05943216,0.8012283,20.18034,-16.27234,-29.78875,990.3818
0.243461132,-0.1112494,-0.1219627,0.153167,-0.5606595,0.06379128,0.8037797,20.18034,-16.27234,-29.78875,990.3818
0.250837803,0.1360224,0.05585129,0.09214295,-0.5581839,0.06423733,0.8071725,20.17743,-15.18729,-29.3081,990.3818
0.255756378,-0.0494286,-0.1810973,0.09204675,-0.5601628,0.05992356,0.8021951,20.17743,-15.18729,-29.3081,990.3818
0.260674477,0.01242336,-0.1810022,0.2138441,-0.559224,0.0619365,0.7993387,20.17743,-15.18729,-29.3081,990.3818
0.265593052,-0.1111874,-0.1216368,0.03087914,-0.5586548,0.06516239,0.8096337,20.17743,-15.18729,-29.3081,990.3801
0.270511627,-0.04931605,0.05608286,0.03087891,-0.557744,0.06047845,0.7997653,20.17743,-15.18729,-29.3081,990.3801
0.275429726,-0.04928504,-0.0624184,0.03087868,-0.559672,0.06378198,0.8047424,20.17743,-15.18729,-29.3081,990.3801
0.280348301,-0.04923469,-0.06236065,0.09175812,-0.5558292,0.06539755,0.7984507,20.17743,-15.18729,-29.3081,990.3801
0.285266876,-0.04916495,-0.1215359,-0.03015464,-0.5572713,0.06340738,0.7998554,20.17743,-15.18729,-29.3081,990.3801
0.290184498,-0.2345385,-0.180674,-0.03015481,-0.5563186,0.06876877,0.800505,20.17743,-15.18729,-29.3081,990.3801
0.295103073,-0.1726091,-0.06209439,0.03080125,-0.5591944,0.06332619,0.8032673,19.8139,-15.93016,-28.94829,990.3801
0.300022125,-0.2342827,-0.2397917,0.03080101,-0.5587369,0.06146257,0.798834,19.8139,-15.93016,-28.94829,990.3801
0.304939747,-0.1723729,-0.1211749,-0.09113087,-0.557683,0.05795066,0.8045391,19.8139,-15.93016,-28.94829,990.3828
0.309858322,-0.172284,-0.06186576,0.03080061,-0.5606841,0.06817804,0.8039206,19.8139,-15.93016,-28.94829,990.3828
0.314776898,0.1367927,-0.002538058,-0.03013673,-0.5587036,0.05802343,0.80018,19.8139,-15.93016,-28.94829,990.3828
0.319694996,-0.1104408,-0.2394686,0.03087676,-0.5557872,0.06290603,0.8012837,19.8139,-15.93016,-28.94829,990.3828
0.324613571,-0.1103909,0.1752759,0.09179451,-0.557211,0.06184537,0.8051456,19.8139,-15.93016,-28.94829,990.3828
0.329532147,-0.1103216,-0.1801208,-0.09101716,-0.5582248,0.05901177,0.7997223,19.8139,-15.93016,-28.94829,990.3828
0.336909771,-0.1719608,-0.1207365,-0.0910271,-0.5562335,0.05944433,0.803604,19.8139,-15.93016,-28.94829,990.3828
0.341828346,-0.04824987,-0.06144625,-0.09095077,-0.5571885,0.05698026,0.8045039,19.8139,-15.93016,-28.94829,990.3828
0.346745968,-0.171706,-0.06142625,0.0309807,-0.5567601,0.065298,0.8033105,20.17474,-15.53905,-29.76628,990.381
0.351664543,-0.1716175,-0.238975,0.03098041,-0.5611916,0.06145859,0.7978829,20.17474,-15.53905,-29.76628,990.381
0.356583595,-0.1714903,-0.06118169,-0.1518313,-0.5562263,0.0623235,0.806124,20.17474,-15.53905,-29.76628,990.381
0.361501217,-0.2950437,-0.1203391,-0.02986165,-0.559277,0.06637768,0.7965683,20.17474,-15.53905,-29.76628,990.381
0.366419792,-0.109454,0.05739833,0.03107511,-0.5645181,0.05497328,0.8040142,20.17474,-15.53905,-29.76628,990.381
0.371338368,-0.2948284,-0.1794955,-0.1517176,-0.5557963,0.06870971,0.8038975,20.17474,-15.53905,-29.76628,990.381
0.376257897,0.01434477,-0.1794385,-0.1516605,-0.560213,0.06387732,0.799409,20.17474,-15.53905,-29.76628,990.381
0.381175041,-0.1710298,-0.001645251,0.03124619,-0.5567932,0.06536148,0.7999141,20.17474,-15.53905,-29.76628,990.381
0.386093617,-0.1091597,-0.1792874,0.03124573,-0.560167,0.06234252,0.8032437,20.17474,-15.53905,-29.76628,990.3793
0.391011715,-0.1708926,-0.06074591,-0.09062901,-0.5616809,0.06482982,0.7999371,20.17474,-15.53905,-29.76628,990.3793
0.398389816,-0.1707898,0.1170477,-0.09052449,-0.5582541,0.0634076,0.7993779,19.42972,-15.18095,-29.30972,990.3793
0.403307438,-0.294266,-0.179098,-0.2123227,-0.5631517,0.06626973,0.800481,19.42972,-15.18095,-29.30972,990.3793
0.408226013,-0.29412,-0.1789668,-0.09033422,-0.560163,0.06329921,0.8042454,19.42972,-15.18095,-29.30972,990.3793
0.413145065,-0.1703712,-0.238106,-0.09027749,-0.5602161,0.05857921,0.7958404,19.42972,-15.18095,-29.30972,990.3793
0.418062687,-0.2320267,-0.2380122,-0.1511962,-0.5577205,0.06380875,0.8042417,19.42972,-15.18095,-29.30972,990.3793
0.422981262,-0.2937018,-0.1193594,-0.0901832,-0.5596294,0.06370035,0.8091093,19.42972,-15.18095,-29.30972,990.3793
0.427899838,-0.1699338,-0.2969463,-0.1510254,-0.5567671,0.05904319,0.7987403,19.42972,-15.18095,-29.30972,990.3793
0.432817936,-0.3551731,-0.2967225,-0.2118677,-0.5631176,0.06186482,0.8013105,19.42972,-15.18095,-29.30972,990.3793
0.437736511,-0.1696039,-0.1188556,0.03199482,-0.5611516,0.05848874,0.8002151,19.42972,-15.18095,-29.30972,990.3793
0.442655086,-0.2312794,-0.2372097,-0.0289624,-0.5577121,0.05897085,0.8021444,19.42972,-15.18095,-29.30972,990.3793
0.447573185,-0.2311341,-0.2370607,-0.08988132,-0.5576755,0.05745418,0.8050086,19.79807,-15.16924,-29.75585,990.3793
0.454951286,-0.1073911,-0.2368559,0.03207766,-0.5577822,0.0673023,0.7999844,19.79807,-15.16924,-29.75585,990.3793
0.459868908,-0.3545101,0.0002621914,-0.08985504,-0.5596504,0.06325828,0.8066676,19.79807,-15.16924,-29.75585,990.3793
0.464787483,-0.2307232,-0.2366515,-0.1507357,-0.5576683,0.06033333,0.8075286,19.79807,-15.16924,-29.75585,990.3793
0.469706535,-0.1687768,-0.2365586,-0.02870929,-0.5606464,0.0589443,0.8021676,19.79807,-15.16924,-29.75585,990.3793
0.474624157,-0.3540558,-0.1771583,-0.1505655,-0.5606763,0.06093024,0.8002895,19.79807,-15.16924,-29.75585,990.3793
0.479542732,-0.2302693,-0.2955503,-0.0895338,-0.5601909,0.0657635,0.802868,19.79807,-15.16924,-29.75585,990.3793
0.484461307,-0.04472024,-0.05850688,-0.2113901,-0.556335,0.0625321,0.7949643,19.79807,-15.16924,-29.75585,990.3793
0.489384651,-0.2918592,-0.3545794,0.03247209,-0.56116,0.06332664,0.8023123,19.79807,-15.16924,-29.75585,990.3793
0.494297981,-0.1062908,-0.05826594,-0.08942259,-0.5621285,0.059924,0.8012401,20.18496,-15.56669,-28.93625,990.3793
0.499216556,-0.1680255,-0.2951801,0.03248871,-0.5591549,0.05794645,0.8040655,20.18496,-15.56669,-28.93625,990.3793
0.504134655,-0.106099,-0.1765472,0.0934246,-0.5547484,0.06376275,0.8081002,20.18496,-15.56669,-28.93625,990.3793
0.511512756,-0.2296408,-0.1763436,-0.02842282,-0.5572213,0.06282927,0.8046917,20.18496,-15.56669,-28.93625,990.3837
0.516430378,-0.04416981,-0.2354659,-0.02838584,-0.5601262,0.05840689,0.8050593,20.18496,-15.56669,-28.93625,990.3837
0.521348953,-0.04410325,-0.3538399,-0.08926685,-0.5615914,0.05887197,0.8055718,20.18496,-15.56669,-28.93625,990.3837
0.526268005,-0.2294023,0.001761994,-0.2111233,-0.5606934,0.06482052,0.8008998,20.18496,-15.56669,-28.93625,990.3837
0.531185627,-0.04393139,-0.175901,0.1545555,-0.5572101,0.05750395,0.8025787,20.18496,-15.56669,-28.93625,990.3837
0.536104202,0.07966027,-0.1758649,-0.08927098,-0.5592654,0.06346224,0.7959892,20.18496,-15.56669,-28.93625,990.3837
0.541022777,0.07959083,0.001944737,0.2763697,-0.5562432,0.06283812,0.804684,20.18496,-15.56669,-28.93625,990.3837
0.545940876,-0.1058442,-0.116504,-0.1503256,-0.5616618,0.06141789,0.7998276,19.80088,-15.53588,-29.76709,990.382
0.550864696,-0.1058359,-0.2348782,0.09349825,-0.554772,0.0638081,0.8056741,19.80088,-15.53588,-29.76709,990.382
0.555778026,-0.1057306,-0.1162833,0.03254069,-0.5567935,0.05957595,0.7963298,19.80088,-15.53588,-29.76709,990.382
0.560702324,-0.04392096,-0.05701432,0.2152933,-0.5586901,0.058962,0.8021522,19.80088,-15.53588,-29.76709,990.382
0.565614700,0.01788873,-0.05695996,0.1542401,-0.5611646,0.05996006,0.7997767,19.80088,-15.53588,-29.76709,990.382
0.572991848,-0.3528981,-0.1159904,0.2759307,-0.5562805,0.06532057,0.8023362,19.80088,-15.53588,-29.76709,990.382
0.577910423,0.01809367,-0.234365,-0.02889002,-0.5621046,0.05650301,0.8016158,19.80088,-15.53588,-29.76709,990.382
0.582829475,0.01812108,-0.234255,0.2148193,-0.5542318,0.05551735,0.8058894,19.80088,-15.53588,-29.76709,990.382
0.587747097,0.07991114,-0.2933595,0.2146461,-0.559653,0.0637457,0.8066832,19.80088,-15.53588,-29.76709,990.382
0.592665672,0.2034638,-0.05626176,0.2145303,-0.5610698,0.05640303,0.8074305,19.43533,-15.91424,-29.33219,990.382
0.597584247,0.2033554,-0.2931399,0.4581249,-0.555842,0.06349321,0.7959621,19.43533,-15.91424,-29.33219,990.382
0.602502346,0.3267918,-0.1152567,0.2141268,-0.5606086,0.05887174,0.8060492,19.43533,-15.91424,-29.33219,990.382
0.607425213,0.388388,-0.1152216,0.3358666,-0.5596534,0.05796017,0.803099,19.43533,-15.91424,-29.33219,990.382
0.612339497,0.2027979,-0.1151306,0.3356364,-0.5582328,0.05709838,0.7977188,19.43533,-15.91424,-29.33219,990.382
0.617257595,0.3880166,-0.1742726,0.2135895,-0.5562152,0.05699818,0.804011,19.43533,-15.91424,-29.33219,990.382
0.622176170,0.2023879,-0.2333403,0.2134171,-0.5578337,0.06981194,0.796181,19.43533,-15.91424,-29.33219,990.382
0.627098083,0.07865783,-0.2332124,0.09137043,-0.5552553,0.06861436,0.8092309,19.43533,-15.91424,-29.33219,990.3803
0.632012844,0.1403905,-0.2330844,0.2131873,-0.5533505,0.07114171,0.805412,19.43533,-15.91424,-29.33219,990.3803
0.636931419,0.01677704,-0.05527605,0.1521163,-0.5577192,0.06525287,0.805259,19.43533,-15.91424,-29.33219,990.3803
0.641849995,-0.2304394,-0.2329218,0.09108361,-0.5548701,0.06544267,0.7965021,20.4965,-15.56933,-28.93558,990.3803
0.649227142,-0.1685178,-0.05513354,0.03007976,-0.5582412,0.06193628,0.7998161,20.4965,-15.56933,-28.93558,990.3803
0.654145718,-0.1066105,-0.3512268,0.151916,-0.5601671,0.05318134,0.7976091,20.4965,-15.56933,-28.93558,990.3803
0.659063816,-0.04474211,-0.410295,0.02996542,-0.5582364,0.07108839,0.805936,20.4965,-15.56933,-28.93558,990.3803
0.663982391,0.01699034,0.06373399,0.02996571,-0.5566949,0.06035126,0.8070356,20.4965,-15.56933,-28.93558,990.3803
0.668900967,0.2023452,0.3006074,-0.2746814,-0.5606529,0.06426055,0.8047658,20.4965,-15.56933,-28.93558,990.3786
0.673819065,0.5111867,0.2412413,-0.2745663,-0.5611482,0.05703556,0.7996829,20.4965,-15.56933,-28.93558,990.3786
0.678737640,0.5726281,0.7147865,-0.3352926,-0.5558033,0.07161607,0.8049618,20.4965,-15.56933,-28.93558,990.3786
0.683656216,0.6958519,0.7143003,-0.5178168,-0.56069,0.06336734,0.8003677,20.4965,-15.56933,-28.93558,990.3786
0.688574314,0.7571968,0.7139074,-0.5784287,-0.5547709,0.05609104,0.8010568,20.4965,-15.56933,-28.93558,990.3786
0.693492889,0.6949197,0.65417,-0.5171664,-0.5611258,0.0555461,0.8010915,19.44555,-15.94188,-28.50216,990.3786
0.698411465,0.8180667,0.5353115,-0.273093,-0.5597056,0.06143558,0.7998121,19.44555,-15.94188,-28.50216,990.3786
0.703329563,0.6322066,0.4757421,-0.3338777,-0.5620986,0.05793805,0.8031183,19.44555,-15.94188,-28.50216,990.3786
0.708248138,0.4464244,0.3569772,-0.1508948,-0.5576693,0.05551358,0.8044609,19.44555,-15.94188,-28.50216,990.3829
0.713171959,0.5078872,0.5937036,-0.1508,-0.5635476,0.05885426,0.8055873,19.44555,-15.94188,-28.50216,990.3829
0.720543861,0.3219849,0.2969978,-0.02884108,-0.5612288,0.0731022,0.8011698,19.44555,-15.94188,-28.50216,990.3829
0.725462437,0.3836035,0.1783824,-0.1506972,-0.5577141,0.0584925,0.8016436,19.44555,-15.94188,-28.50216,990.3829
0.730380535,0.3833818,0.2375034,-0.02874743,-0.564591,0.05463097,0.7962353,19.44555,-15.94188,-28.50216,990.3829
0.735299110,0.2595381,-0.1179695,0.2149618,-0.5666454,0.06878467,0.7947637,19.44555,-15.94188,-28.50216,990.3829
0.740217686,0.1357915,-0.1771284,0.1538321,-0.5581971,0.0690843,0.8087845,20.17193,-15.17241,-29.75504,990.3829
0.745135784,-0.04965942,-0.05862544,0.2147301,-0.5567333,0.05801393,0.8016202,20.17193,-15.17241,-29.75504,990.3829
0.750054359,0.1356985,0.0006630505,-0.09005228,-0.5621459,0.05802874,0.7982663,20.17193,-15.17241,-29.75504,990.3786
0.754972935,0.01204922,-0.3546611,0.2754932,-0.5587274,0.06144443,0.7998043,20.17193,-15.17241,-29.75504,990.3786
0.759891033,0.07380431,-0.3544196,0.2144596,-0.5592255,0.06386803,0.8003717,20.17193,-15.17241,-29.75504,990.3786
0.764809608,0.07377737,-0.5319146,0.1533877,-0.5601414,0.06277552,0.8061706,20.17193,-15.17241,-29.75504,990.3786
0.769728184,-0.111654,-0.3538813,0.03139792,-0.5557631,0.0561094,0.7996089,20.17193,-15.17241,-29.75504,990.3786
0.774646282,0.07376233,-0.2944259,0.5187796,-0.5646447,0.06003791,0.7939814,20.17193,-15.17241,-29.75504,990.3786
0.779564857,0.1973383,-0.4126697,0.2138254,-0.5612249,0.06489773,0.7965368,20.17193,-15.17241,-29.75504,990.3786
0.784483433,0.0736502,-0.4715691,0.3965026,-0.5571045,0.05199725,0.8101699,20.17193,-15.17241,-29.75504,990.3786
0.791860580,0.5061328,-0.4120964,0.4570853,-0.5587577,0.05764485,0.7943419,20.17474,-15.53905,-29.76628,990.3768
0.796779156,0.07328225,-0.1749054,0.5177353,-0.5611327,0.05845246,0.8021559,20.17474,-15.53905,-29.76628,990.3768
0.801697254,0.0732168,-0.6485853,0.4565303,-0.5552728,0.05755793,0.8006225,20.17474,-15.53905,-29.76628,990.3768
0.806615829,0.2585558,-0.5297304,0.3953638,-0.5621839,0.06147695,0.796435,20.17474,-15.53905,-29.76628,990.3768
0.811534405,0.1348292,-0.6478451,0.5778694,-0.5573217,0.07073678,0.7991197,20.17474,-15.53905,-29.76628,990.3768
0.816452503,0.07296246,-0.8843331,0.3946949,-0.5582933,0.07457287,0.8021639,20.17474,-15.53905,-29.76628,990.3768
0.821371078,0.01115401,-0.8245445,0.2116164,-0.5538608,0.06490969,0.79939,20.17474,-15.53905,-29.76628,990.3768
0.826289654,-0.1124365,-0.6463833,0.2724206,-0.5597411,0.06777202,0.8000156,20.17474,-15.53905,-29.76628,990.3768
0.831207752,0.07301912,-0.4090452,0.2113315,-0.559216,0.06384989,0.8013421,20.17474,-15.53905,-29.76628,990.3795
0.836126327,0.01117176,-0.4087695,0.3330539,-0.5582958,0.07168464,0.8001291,20.17474,-15.53905,-29.76628,990.3795
0.841044903,0.320075,0.06523989,-0.09367707,-0.5503457,0.06524669,0.8090827,20.49459,-15.92322,-29.3299,990.3795
0.845966816,0.6906245,0.5982589,-0.3373285,-0.5587786,0.0697396,0.7995852,20.49459,-15.92322,-29.3299,990.3795
0.850881577,1.122743,0.6570975,-0.7027011,-0.5567843,0.07547028,0.8070356,20.49459,-15.92322,-29.3299,990.3795
0.858258724,1.492455,1.307763,-1.067451,-0.5537169,0.05257913,0.806762,20.49459,-15.92322,-29.3299,990.3795
0.863177299,1.738684,1.662265,-1.127699,-0.5636256,0.0744335,0.8070585,20.49459,-15.92322,-29.3299,990.3795
0.868095875,1.861234,1.779687,-1.309763,-0.5577372,0.06094773,0.8007514,20.49459,-15.92322,-29.3299,990.3795
0.873013973,1.612897,1.719373,-1.308902,-0.5611382,0.05942729,0.8021871,20.49459,-15.92322,-29.3299,990.3795
0.877932548,1.611865,1.599771,-1.186206,-0.5651128,0.06047556,0.796427,20.49459,-15.92322,-29.3299,990.3795
0.882851124,1.48721,1.243442,-0.9417886,-0.5592546,0.06488822,0.7979769,20.49459,-15.92322,-29.3299,990.3795
0.887771606,1.486315,1.005785,-1.063052,-0.5518628,0.06581153,0.8042579,19.80919,-15.91741,-29.33138,990.3795
0.892687798,1.485381,1.301281,-1.306094,-0.5582871,0.07263226,0.801616,19.80919,-15.91741,-29.33138,990.3795
0.897606373,2.349513,1.951952,-1.67082,-0.5518777,0.06680451,0.8033187,19.80919,-15.91741,-29.33138,990.3795
0.902524471,2.780609,2.424516,-1.974456,-0.5543526,0.06539268,0.7994095,19.80919,-15.91741,-29.33138,990.3795
0.907443047,3.582184,3.311376,-2.521535,-0.5532593,0.06903786,0.8135979,19.80919,-15.91741,-29.33138,990.3795
0.912361622,4.754006,4.967597,-3.25114,-0.5409877,0.06857945,0.8178523,19.80919,-15.91741,-29.33138,990.3778
0.917279243,5.866782,6.86365,-3.982615,-0.5403849,0.06499057,0.827443,19.80919,-15.91741,-29.33138,990.3778
0.922198296,7.226842,8.759703,-4.531222,-0.5496978,0.05192759,0.8173898,19.80919,-15.91741,-29.33138,990.3778
0.927116871,7.659588,9.944736,-4.470265,-0.5590416,0.04856762,0.8100759,19.80919,-15.91741,-29.33138,990.3778
0.934494019,8.277797,10.478,-4.165484,-0.5708949,0.03662967,0.7908545,19.80919,-15.91741,-29.33138,990.3778
0.939412594,7.845051,9.470723,-3.068271,-0.5753615,0.0323754,0.7815296,20.18215,-15.20004,-28.92501,990.3778
0.944330692,7.721409,8.937458,-2.397752,-0.5823213,0.04747782,0.7791578,20.18215,-15.20004,-28.92501,990.3778
0.949249268,7.412304,8.107935,-1.910101,-0.5695491,0.05664523,0.7905142,20.18215,-15.20004,-28.92501,990.3778
0.954167843,7.721409,7.811677,-1.60532,-0.5680906,0.06487205,0.7946502,20.18215,-15.20004,-28.92501,990.3778
0.959085941,8.339618,8.522696,-1.788189,-0.5655101,0.05161599,0.8005159,20.18215,-15.20004,-28.92501,990.3778
0.964004517,8.834185,8.878206,-1.910101,-0.5708383,0.03989649,0.7987273,20.18215,-15.20004,-28.92501,990.3778
0.968923092,9.452394,9.115213,-0.9957568,-0.5714561,0.05701517,0.7958825,20.18215,-15.20004,-28.92501,990.3778
0.973840713,10.62699,10.24099,-1.422451,-0.5498115,0.03336267,0.8449566,20.18215,-15.20004,-28.92501,990.3778
0.978759766,12.48162,13.26283,-1.178626,-0.5601971,0.03300905,0.8328922,20.18215,-15.20004,-28.92501,990.3778
0.983678341,14.76899,16.16616,-0.3861938,-0.5649942,0.009641298,0.828298,20.18215,-15.20004,-28.92501,990.3778
0.988595963,14.70717,16.40317,0.8938883,-0.5963808,0.04711368,0.7918854,20.50201,-15.58421,-28.48864,990.3778
0.993514538,15.0781,15.9884,1.625364,-0.589302,0.06213816,0.7743442,20.50201,-15.58421,-28.48864,990.3787
0.998433113,14.33624,14.27011,2.295883,-0.5864409,0.07773488,0.7762774,20.50201,-15.58421,-28.48864,990.3787
1.005810738,11.98705,11.07052,2.783533,-0.5802482,0.1022177,0.7740984,20.50201,-15.58421,-28.48864,990.3787
1.010729313,11.05974,10.24099,2.84449,-0.5852025,0.1051887,0.7693789,20.50201,-15.58421,-28.48864,990.3787
1.015647411,9.266932,8.404193,2.722577,-0.5863524,0.1108135,0.7550026,20.50201,-15.58421,-28.48864,990.3787
1.020565987,8.030514,6.685895,2.113014,-0.578037,0.1181184,0.7595384,20.50201,-15.58421,-28.48864,990.3787
1.025484562,6.732275,5.560114,1.808233,-0.5775467,0.1195669,0.7605519,20.50201,-15.58421,-28.48864,990.3787
1.030402184,5.434036,4.493584,1.259626,-0.5759409,0.1173856,0.7735782,20.50201,-15.58421,-28.48864,990.3787
1.035321236,5.00129,4.434333,0.8329321,-0.5717993,0.1140884,0.7952875,20.50201,-15.58421,-28.48864,990.3787
1.040239811,4.939469,4.967597,0.5891069,-0.576929,0.08029,0.800558,20.19518,-15.59433,-28.10622,990.3787
1.045157433,5.495857,6.271133,0.5281506,-0.5762935,0.06169092,0.8043262,20.19518,-15.59433,-28.10622,990.3787
1.050076008,6.608633,7.811677,1.076757,-0.5928035,0.04636701,0.8073692,20.19518,-15.59433,-28.10622,990.3787
1.054994583,6.237708,7.57467,1.747276,-0.6023299,0.04721475,0.7836833,20.19518,-15.59433,-28.10622,990.3787
1.059912682,6.484991,7.57467,2.539708,-0.5924838,0.04235652,0.787331,20.19518,-15.59433,-28.10622,990.3787
1.064831257,6.114066,7.337663,2.966402,-0.5961887,0.07420723,0.7777009,20.19518,-15.59433,-28.10622,990.3787
1.072208881,5.434036,6.211882,3.149271,-0.5761929,0.0851028,0.7783716,20.19518,-15.59433,-28.10622,990.3787
1.077127457,4.692185,5.737869,2.966402,-0.5703968,0.09976029,0.7797651,20.19518,-15.59433,-28.10622,990.3787
1.082048416,3.764872,5.441611,2.661621,-0.572858,0.1176094,0.7890972,20.19518,-15.59433,-28.10622,990.3787
1.086963654,3.146663,5.382359,1.930145,-0.559124,0.1171733,0.7928548,20.51233,-16.33026,-28.12802,990.3787
1.091882706,2.466633,5.263855,1.320582,-0.5631651,0.1434222,0.7956716,20.51233,-16.33026,-28.12802,990.3787
1.096801281,2.157529,6.389637,0.406238,-0.5437272,0.1293939,0.82468,20.51233,-16.33026,-28.12802,990.3787
1.101718903,1.972066,7.57467,-0.3861938,-0.5446438,0.1509651,0.844315,20.51233,-16.33026,-28.12802,990.3787
1.106637478,1.786603,9.35222,-1.666276,-0.5281569,0.1340492,0.8698562,20.51233,-16.33026,-28.12802,990.3787
1.111556053,2.28117,12.55181,-2.09297,-0.5225381,0.1423181,0.8996928,20.51233,-16.33026,-28.12802,990.3827
1.116474152,3.084842,17.17344,-2.946358,-0.5027461,0.1381968,0.9207618,20.51233,-16.33026,-28.12802,990.3827
1.121392727,3.332126,22.8616,-4.653134,-0.4944604,0.1783467,0.9423735,20.51233,-16.33026,-28.12802,990.3827
1.128770351,5.928603,33.7639,-8.310512,-0.4367231,0.2429427,0.9842702,20.51233,-16.33026,-28.12802,990.3827
1.133688927,6.917737,40.63709,-13.4918,-0.4053581,0.2932463,1.021555,20.51233,-16.33026,-28.12802,990.3827
1.138607502,6.794096,50.59136,-16.9663,-0.4183082,0.3095153,1.058113,20.87867,-15.95403,-28.49907,990.3827
1.143525124,5.495857,60.36789,-22.08663,-0.4034426,0.3275985,1.089159,20.87867,-15.95403,-28.49907,990.3827
1.148443699,7.412304,68.95937,-25.86592,-0.381111,0.2356054,1.167596,20.87867,-15.95403,-28.49907,990.3827
1.153362751,13.77986,77.01759,-33.24163,-0.3916472,0.2331956,1.290931,20.87867,-15.95403,-28.49907,990.3827
1.158280373,21.19836,83.23902,-41.34882,-0.5210124,0.1651219,1.478198,20.87867,-15.95403,-28.49907,990.3827
1.163198948,21.69293,88.74942,-51.77235,-0.6141915,0.3942513,1.49165,20.87867,-15.95403,-28.49907,990.3827
1.168117523,26.57678,94.25983,-60.12336,-0.4210731,0.3608442,1.310317,20.87867,-15.95403,-28.49907,990.3827
1.173035622,33.87164,102.081,-67.49907,-0.4441448,0.4340707,1.295861,20.87867,-15.95403,-28.49907,990.3827
1.177954197,35.66445,107.947,-75.05765,-0.5264938,0.4978183,1.316545,20.87867,-15.95403,-28.49907,990.3827
1.182875156,32.07884,110.7318,-81.15328,-0.5113505,0.5052214,1.319086,20.87867,-15.95403,-28.49907,990.3827
1.187790871,25.89675,108.658,-84.93257,-0.5711885,0.6713442,1.353064,21.64682,-16.01564,-26.83739,990.3827
1.195168972,4.259439,99.65173,-90.6015,-0.6966587,0.8457654,1.433487,21.64682,-16.01564,-26.83739,990.3871
1.200087547,-12.86495,89.87521,-91.57681,-0.8250425,0.7973764,1.430076,21.64682,-16.01564,-26.83739,990.3871
1.205005169,-26.83647,76.36583,-88.89473,-0.7524216,0.7286389,1.462721,21.64682,-16.01564,-26.83739,990.3871
1.209924221,-36.85146,61.84917,-83.59153,-0.627584,0.5554965,1.46974,21.64682,-16.01564,-26.83739,990.3871
1.214841843,-41.30256,48.63606,-75.36243,-0.4297464,0.3909368,1.443904,21.64682,-16.01564,-26.83739,990.3871
1.219760418,-40.49889,37.61525,-65.12177,-0.1987122,0.2605432,1.432486,21.64682,-16.01564,-26.83739,990.3871
1.224678993,-35.55322,30.14955,-54.45442,0.01372407,0.1830261,1.401553,21.64682,-16.01564,-26.83739,990.3871
1.229597092,-28.25835,24.28363,-43.90899,0.1937093,0.1378559,1.372894,21.64682,-16.01564,-26.83739,990.3871
1.234515667,-20.22163,20.78779,-34.15598,0.311369,0.124844,1.342379,24.9827,-16.4932,-24.35141,990.3871
1.239434242,-12.67949,17.5882,-24.89062,0.3946865,0.1300533,1.312245,24.9827,-16.4932,-24.35141,990.3871
1.244352341,-5.693724,13.55909,-16.29579,0.4281638,0.1279783,1.282772,24.9827,-16.4932,-24.35141,990.3871
1.249270916,-0.4389487,8.344941,-8.371469,0.4445522,0.1324453,1.260446,24.9827,-16.4932,-24.35141,990.3871
1.254189491,3.764872,1.886512,-0.3252375,0.4555026,0.1422797,1.235423,24.9827,-16.4932,-24.35141,990.3871
1.259107590,6.175887,-5.04593,6.62378,0.4652688,0.1308243,1.226722,24.9827,-16.4932,-24.35141,990.3871
1.266485691,9.452394,-17.19252,15.64531,0.4864924,0.08965668,1.221344,24.9827,-16.4932,-24.35141,990.3871
1.271404266,11.73977,-24.77673,20.21703,0.4976256,0.03551462,1.226799,24.9827,-16.4932,-24.35141,990.3871
1.276321888,15.32538,-31.59067,25.21545,0.4922073,-0.03821114,1.228364,24.9827,-16.4932,-24.35141,990.3854
1.281240463,19.22009,-37.63433,29.78717,0.4788855,-0.06076766,1.202502,24.9827,-16.4932,-24.35141,990.3854
1.286159515,22.68206,-45.87031,33.38359,0.486654,-0.06779955,1.242998,27.54191,-15.0908,-23.02397,990.3854
1.291077137,24.47487,-50.13643,36.24854,0.472718,-0.0563682,1.225029,27.54191,-15.0908,-23.02397,990.3854
1.295995712,24.04212,-53.51377,38.38201,0.4871246,-0.04365096,1.255907,27.54191,-15.0908,-23.02397,990.3854
1.300913811,22.92935,-55.64684,39.17444,0.4621765,-0.02556335,1.215907,27.54191,-15.0908,-23.02397,990.3854
1.305832386,20.64197,-57.8984,38.56488,0.462205,-0.03861482,1.261614,27.54191,-15.0908,-23.02397,990.3854
1.310750961,18.66371,-56.53561,38.56488,0.4219843,-0.05707332,1.238532,27.54191,-15.0908,-23.02397,990.3854
1.315669060,16.25269,-56.95037,38.19914,0.3234602,-0.04742774,1.171675,27.54191,-15.0908,-23.02397,990.3854
1.320587635,13.77986,-58.78717,38.07723,0.292531,-0.08166932,1.240262,27.54191,-15.0908,-23.02397,990.3854
1.325506210,11.05974,-59.7352,38.62584,0.2134437,-0.06917384,1.212665,27.54191,-15.0908,-23.02397,990.3854
1.330424309,8.525081,-60.68322,39.60114,0.1537385,-0.06240248,1.213373,27.54191,-15.0908,-23.02397,990.3854
1.335342884,6.114066,-62.10526,39.84496,0.08338434,-0.07956659,1.210972,28.25425,-16.60571,-21.79047,990.3854
1.340261459,5.68132,-64.17907,40.7593,0.01703106,-0.08577491,1.224427,28.25425,-16.60571,-21.79047,990.3854
1.347638607,8.277797,-67.73417,43.25851,-0.1503523,-0.1742958,1.209853,28.25425,-16.60571,-21.79047,990.3854
1.352557182,11.49248,-71.58553,47.64737,-0.2876211,-0.1951448,1.164185,28.25425,-16.60571,-21.79047,990.3854
1.357475758,14.45989,-77.45144,53.43821,-0.3806986,-0.1903791,1.151993,28.25425,-16.60571,-21.79047,990.3896
1.362393856,16.43815,-84.20612,59.71671,-0.4638514,-0.12555,1.140673,28.25425,-16.60571,-21.79047,990.3896
1.367312431,16.68544,-90.90156,64.4713,-0.5231641,-0.01012101,1.147288,28.25425,-16.60571,-21.79047,990.3896
1.372231960,15.01627,-96.41196,66.97051,-0.5662095,0.07916979,1.15099,28.25425,-16.60571,-21.79047,990.3896
1.377149105,12.4198,-102.8111,68.49442,-0.6290069,0.1040579,1.146477,28.25425,-16.60571,-21.79047,990.3896
1.382067680,10.31789,-108.9141,69.53067,-0.6902636,0.1100135,1.137946,28.25425,-16.60571,-21.79047,990.3896
1.386986256,9.205111,-114.8392,71.42032,-0.7797424,0.06432725,1.112939,29.01271,-18.01752,-21.83193,990.3896
1.391904354,9.328753,-122.4234,74.10239,-0.8813168,0.03658067,1.061901,29.01271,-18.01752,-21.83193,990.3896
1.396824360,9.823319,-131.6667,77.0283,-0.9659401,0.05607805,1.022436,29.01271,-18.01752,-21.83193,990.3896
1.401741028,9.699677,-141.0285,79.34464,-0.9925877,0.09680031,1.022989,29.01271,-18.01752,-21.83193,990.3896
1.406659603,8.772365,-150.568,79.71037,-0.9986559,0.1578626,0.9890673,29.01271,-18.01752,-21.83193,990.3896
1.411578179,5.866782,-158.9225,78.30838,-0.9637827,0.2152454,0.9886788,29.01271,-18.01752,-21.83193,990.3896
1.416496277,1.292036,-164.3144,74.83387,-0.9133156,0.2434636,0.9644071,29.01271,-18.01752,-21.83193,990.3896
1.421414852,-3.28271,-169.0545,70.3231,-0.8650993,0.2206802,0.9797891,29.01271,-18.01752,-21.83193,990.3896
1.426333428,-7.177425,-168.6397,64.53226,-0.8066856,0.1696585,0.9194097,29.01271,-18.01752,-21.83193,990.3896
1.431251049,-8.599306,-168.2842,59.71671,-0.767893,0.1330822,0.9635588,29.01271,-18.01752,-21.83193,990.3896
1.438629150,-6.868321,-163.8996,52.76769,-0.7798271,0.04125779,0.8869114,30.42603,-20.07063,-24.83141,990.3879
1.443547726,-3.344531,-160.1075,49.11032,-0.8196396,-0.00114997,0.8407237,30.42603,-20.07063,-24.83141,990.3879
1.448465824,0.9829317,-157.0264,46.4892,-0.8637991,-0.006574281,0.8229474,30.42603,-20.07063,-24.83141,990.3879
1.453384399,5.928603,-154.1823,44.59955,-0.9018707,0.004488367,0.7871994,30.42603,-20.07063,-24.83141,990.3879
1.458302975,10.25607,-151.5753,42.83182,-0.9457687,0.04048993,0.7712348,30.42603,-20.07063,-24.83141,990.3879
1.463221073,13.22347,-149.3237,41.12504,-0.9802891,0.06966103,0.7598295,30.42603,-20.07063,-24.83141,990.3879
1.468139648,15.51084,-147.6054,39.60114,-1.014543,0.08431611,0.7163968,30.42603,-20.07063,-24.83141,990.3879
1.473057747,16.49998,-145.8278,39.05253,-1.014843,0.09694596,0.693013,30.42603,-20.07063,-24.83141,990.3879
1.477976322,16.5618,-144.2873,37.77245,-1.014401,0.1216092,0.6525297,30.42603,-20.07063,-24.83141,990.3923
1.482894897,15.75813,-142.1542,36.79715,-0.9887958,0.1320909,0.6259512,27.85025,-24.54006,-29.57635,990.3923
1.487812519,14.83081,-138.7769,35.51706,-0.9479792,0.1160923,0.5882026,27.85025,-24.54006,-29.57635,990.3923
1.492731571,14.33624,-134.5108,34.4808,-0.9002578,0.1014909,0.5572397,27.85025,-24.54006,-29.57635,990.3923
1.497650146,14.02714,-128.4671,33.07881,-0.8547935,0.07830926,0.5405862,27.85025,-24.54006,-29.57635,990.3923
1.502567768,14.39807,-121.2384,32.04255,-0.8221217,0.04792797,0.5116685,27.85025,-24.54006,-29.57635,990.3923
1.509945869,16.43815,-109.2103,31.18917,-0.8150396,-0.009380238,0.4500522,27.85025,-24.54006,-29.57635,990.3923
1.514864445,18.10732,-101.5076,31.37204,-0.8308352,-0.03190446,0.4212986,27.85025,-24.54006,-29.57635,990.3906
1.519782543,19.65284,-94.1604,31.49395,-0.8639417,-0.01660126,0.395842,27.85025,-24.54006,-29.57635,990.3906
1.524701118,20.64197,-87.70197,31.49395,-0.9039844,0.004597839,0.3648051,27.85025,-24.54006,-29.57635,990.3906
1.529619694,20.08559,-82.31007,31.18917,-0.9448507,0.01825915,0.3451861,27.85025,-24.54006,-29.57635,990.3906
1.534537792,17.98368,-77.45144,29.90908,-0.9673165,0.04979892,0.3172496,24.22308,-28.72262,-33.48418,990.3906
1.539460182,14.83081,-72.82981,27.83657,-0.9740609,0.06784167,0.2882658,24.22308,-28.72262,-33.48418,990.3906
1.544373989,10.99792,-67.85267,24.78876,-0.9751959,0.0599367,0.2671437,24.22308,-28.72262,-33.48418,990.3906
1.549293041,7.041379,-62.46077,20.64373,-0.9722435,0.0738898,0.2267819,24.22308,-28.72262,-33.48418,990.3906
1.554211616,2.404812,-56.00234,15.70627,-0.950537,0.0568254,0.1847862,24.22308,-28.72262,-33.48418,990.3906
1.559130192,-1.799008,-48.59589,10.28116,-0.9238146,0.03329648,0.1517672,24.22308,-28.72262,-33.48418,990.3889
1.564047813,-5.137336,-40.06365,4.49031,-0.9062589,0.003174739,0.1278372,24.22308,-28.72262,-33.48418,990.3889
1.571425915,-7.981097,-25.30999,-2.702533,-0.9098712,-0.0215671,0.09308612,24.22308,-28.72262,-33.48418,990.3889
1.576344013,-8.784769,-15.47422,-6.542779,-0.9355609,-0.02563981,0.06403429,24.22308,-28.72262,-33.48418,990.3889
1.581262588,-8.475664,-5.993957,-9.712506,-0.978296,-0.0184324,0.04956453,20.54003,-31.1267,-35.6759,990.3889
1.586181164,-8.722948,1.768009,-11.84598,-1.041304,0.02566453,0.03498731,20.54003,-31.1267,-35.6759,990.3889
1.591099262,-9.650261,7.93018,-13.67467,-1.10569,0.08886399,0.04142632,20.54003,-31.1267,-35.6759,990.3889
1.596017837,-12.18492,12.78881,-15.19857,-1.152246,0.1720232,0.03233632,20.54003,-31.1267,-35.6759,990.3915
1.600936413,-16.32692,16.69942,-17.14917,-1.17471,0.2633498,0.04127524,20.54003,-31.1267,-35.6759,990.3915
1.605854511,-22.32355,19.72126,-19.64838,-1.166349,0.3390155,0.0416905,20.54003,-31.1267,-35.6759,990.3915
1.610773086,-28.75292,23.45411,-22.94002,-1.141528,0.3891368,0.05960198,20.54003,-31.1267,-35.6759,990.3915
1.615691662,-34.6259,27.42397,-26.65835,-1.124091,0.4002279,0.04864718,20.54003,-31.1267,-35.6759,990.3915
1.620609283,-38.4588,31.74934,-30.37669,-1.108589,0.3948652,0.02989768,20.54003,-31.1267,-35.6759,990.3915
1.625528335,-39.38611,36.37097,-33.66833,-1.091539,0.3869516,0.01785119,20.54003,-31.1267,-35.6759,990.3915
1.630450725,-37.03692,41.17035,-36.59423,-1.077973,0.3815349,0.001058007,19.47029,-32.46579,-37.44517,990.3915
1.637824058,-27.70196,47.92504,-39.64204,-1.096889,0.3357355,-0.01045141,19.47029,-32.46579,-37.44517,990.3898
1.642742634,-20.15981,43.95518,-38.36196,1.072102,0.4323278,2.055361,19.47029,-32.46579,-37.44517,990.3898
1.647660732,-15.15232,151.0229,-49.94366,-0.7170728,0.3264945,-0.03959823,19.47029,-32.46579,-37.44517,990.3898
1.652579307,-30.23662,99.29621,-43.78707,1.893102,1.142299,1.960199,19.47029,-32.46579,-37.44517,990.3898
1.657500267,-32.70945,149.8379,-46.83489,0.3865008,0.5586741,1.131841,19.47029,-32.46579,-37.44517,990.3898
1.662415981,-26.3419,158.6664,-35.31415,1.183593,-0.216592,1.704933,19.47029,-32.46579,-37.44517,990.3898
1.667334557,-12.30856,206.7787,-7.213298,1.147488,-0.5318568,1.723768,19.47029,-32.46579,-37.44517,990.3898
1.672253132,-4.333664,244.6405,26.12979,0.4895086,-0.2816199,1.306522,19.47029,-32.46579,-37.44517,990.3898
1.677170753,3.517588,268.4597,51.24379,-0.3520275,-0.03029722,0.9262609,19.47029,-32.46579,-37.44517,990.3907
1.682089806,-0.6244114,280.2507,61.42349,-0.6760253,0.0627377,1.012987,21.65933,-32.1474,-36.53535,990.3907
1.687008381,-1.118979,285.4056,58.6195,-1.351685,-0.2200023,1.022577,21.65933,-32.1474,-36.53535,990.3907
1.691926002,2.28117,265.7933,52.15813,-1.858302,-0.3606602,0.896471,21.65933,-32.1474,-36.53535,990.3907
1.699304104,16.8709,231.1311,24.97162,-2.12264,-0.4858972,1.050967,21.65933,-32.1474,-36.53535,990.3907
1.704222202,28.06048,203.1643,1.076757,-2.403625,-0.6479837,0.9781594,21.65933,-32.1474,-36.53535,990.3907
1.709140778,43.88663,166.7838,-14.71092,-2.389395,-0.730442,0.8307095,21.65933,-32.1474,-36.53535,990.3907
1.714059353,58.78547,136.5655,-19.89221,-1.999442,-0.3839909,0.9551455,21.65933,-32.1474,-36.53535,990.3907
1.718981266,58.22908,112.9241,-23.85436,-1.618262,0.1917523,1.020487,21.65933,-32.1474,-36.53535,990.389
1.723896027,44.9994,97.57792,-23.42767,-1.24839,0.8532924,1.030893,21.65933,-32.1474,-36.53535,990.389
1.728814602,33.748,85.90534,-19.77029,-1.152027,1.010219,0.8234407,27.88469,-33.07117,-32.39435,990.389
1.733732223,18.54006,82.88351,-11.90693,-0.854265,1.271432,0.8201469,27.88469,-33.07117,-32.39435,990.389
1.738651276,-2.169934,79.03215,-10.62685,-0.8186287,1.444915,0.7671525,27.88469,-33.07117,-32.39435,990.389
1.743572235,-21.45805,74.88454,-12.63841,-0.774676,1.234742,0.681882,27.88469,-33.07117,-32.39435,990.389
1.748487472,-34.00769,68.42611,-20.01412,-0.8960365,0.9257216,0.587516,27.88469,-33.07117,-32.39435,990.389
1.753406048,-37.90241,60.13088,-28.66991,-0.6932322,0.3286992,0.6594468,27.88469,-33.07117,-32.39435,990.389
1.758324623,-36.9751,53.90945,-35.3751,-0.6824337,0.1614492,0.6622498,27.88469,-33.07117,-32.39435,990.3873
1.765702248,-33.88405,48.28055,-38.84961,-0.7293096,0.223085,0.7083089,27.88469,-33.07117,-32.39435,990.3873
1.770620823,-34.6259,42.7109,-39.88587,-0.7417126,0.340943,0.711704,27.88469,-33.07117,-32.39435,990.3873
1.775538921,-36.85146,38.14852,-41.6536,-0.7848735,0.2554687,0.6976649,27.88469,-33.07117,-32.39435,990.3873
1.780457497,-37.5933,33.94165,-40.92213,-0.7265248,0.2050976,0.7324716,31.23402,-34.60244,-29.49326,990.3873
1.785376072,-36.60417,31.03832,-41.16595,-0.6406095,-0.03241164,0.7722193,31.23402,-34.60244,-29.49326,990.3873
1.790293693,-34.00769,29.85329,-39.45918,-0.6273122,-0.01800519,0.7905369,31.23402,-34.60244,-29.49326,990.3873
1.795212746,-31.16393,28.31275,-38.05718,-0.6284328,0.01408298,0.7954592,31.23402,-34.60244,-29.49326,990.3873
1.800131321,-29.92752,27.06846,-37.08188,-0.6578023,0.0615821,0.7714898,31.23402,-34.60244,-29.49326,990.39
1.805055141,-29.24748,25.17241,-35.43606,-0.6640491,0.04925749,0.7755157,31.23402,-34.60244,-29.49326,990.39
1.809967518,-28.13471,22.38758,-34.64363,-0.731161,-0.02199252,0.7718399,31.23402,-34.60244,-29.49326,990.39
1.814886093,-26.40372,18.41772,-32.32729,-0.7097826,-0.1121355,0.8032473,31.23402,-34.60244,-29.49326,990.39
1.819808483,-23.49814,16.10691,-29.5233,-0.6898536,-0.112684,0.7899566,31.23402,-34.60244,-29.49326,990.39
1.827182293,-20.4071,15.04038,-25.80497,-0.595241,-0.04815511,0.8009598,33.39109,-32.82117,-30.26427,990.39
1.832100868,-19.17068,14.56636,-23.36671,-0.6467372,0.02878664,0.7829714,33.39109,-32.82117,-30.26427,990.39
1.837018967,-18.24337,12.90732,-21.7209,-0.6555588,-0.04356225,0.7875216,33.39109,-32.82117,-30.26427,990.39
1.841937542,-15.83235,10.95201,-18.79499,-0.7010204,-0.1298182,0.7880423,33.39109,-32.82117,-30.26427,990.39
1.846855164,-12.86495,8.99671,-14.64997,-0.6701028,-0.1278165,0.7999911,33.39109,-32.82117,-30.26427,990.39
1.851774693,-10.45393,7.57467,-12.21171,-0.6118898,-0.1326242,0.7979026,33.39109,-32.82117,-30.26427,990.39
1.856692791,-8.042918,7.93018,-9.529637,-0.6030775,-0.02361249,0.8149205,33.39109,-32.82117,-30.26427,990.39
1.861610413,-6.744679,8.463445,-7.457124,-0.5624825,-0.02807401,0.8120165,33.39109,-32.82117,-30.26427,990.39
1.866528988,-5.570083,8.759703,-6.237998,-0.6121066,0.06302965,0.7939813,33.39109,-32.82117,-30.26427,990.39
1.871447563,-5.199157,8.167187,-6.35991,-0.5950806,0.002144042,0.7977159,33.39109,-32.82117,-30.26427,990.39
1.876365662,-4.395485,8.167187,-5.811304,-0.6159623,0.05372423,0.7942002,33.39109,-32.82117,-30.26427,990.39
1.881284237,-4.02456,7.21916,-5.750348,-0.5947633,-0.004754674,0.775643,34.50975,-31.74563,-29.78119,990.3865
1.886202812,-3.406352,7.337663,-4.836003,-0.5928229,0.06615165,0.7667332,34.50975,-31.74563,-29.78119,990.3865
1.891123772,-2.849963,6.86365,-3.799746,-0.5676267,0.06685335,0.7932533,34.50975,-31.74563,-29.78119,990.3865
1.896039486,-2.540859,7.57467,-2.275839,-0.5535571,0.03491418,0.8125063,34.50975,-31.74563,-29.78119,990.3865
1.903417587,-3.035426,6.15263,-5.079828,-0.5848774,0.190371,0.8046382,34.50975,-31.74563,-29.78119,990.3865
1.908335209,-2.479038,5.915624,-4.71409,-0.5670654,0.02476985,0.7749057,34.50975,-31.74563,-29.78119,990.3865
1.913254261,-2.355396,5.500862,-3.860703,-0.5928875,0.07350826,0.7645419,34.50975,-31.74563,-29.78119,990.3865
1.918172836,-2.355396,5.086101,-3.616877,-0.5767635,0.09296962,0.7747443,34.50975,-31.74563,-29.78119,990.3848
1.923090458,-3.900919,4.730591,-6.237998,-0.5821947,0.1426625,0.7491922,34.50975,-31.74563,-29.78119,990.3848
1.928009033,-4.086381,3.723313,-6.116086,-0.5980442,0.1409974,0.778401,35.55838,-31.06755,-30.20524,990.3848
1.932928085,-5.570083,2.953042,-8.1886,-0.587521,0.1439581,0.7555894,35.55838,-31.06755,-30.20524,990.3848
1.937850952,-6.744679,2.005015,-8.432425,-0.6010075,0.1077562,0.7550249,35.55838,-31.06755,-30.20524,990.3848
1.942764282,-7.671993,1.175492,-8.432425,-0.6083014,0.09603716,0.7522814,35.55838,-31.06755,-30.20524,990.3848
1.947682381,-8.228381,-0.4835538,-8.005731,-0.6051392,0.06958897,0.7596615,35.55838,-31.06755,-30.20524,990.3848
1.952600956,-8.352022,-1.964845,-7.457124,-0.6139265,0.06755058,0.7601537,35.55838,-31.06755,-30.20524,990.3848
1.957519531,-8.599306,-3.801646,-6.908517,-0.6132476,0.04452846,0.765722,35.55838,-31.06755,-30.20524,990.3848
1.962439537,-8.352022,-4.986679,-5.933217,-0.6120434,0.01420857,0.7705664,35.55838,-31.06755,-30.20524,990.3857
1.967356205,-8.352022,-6.230963,-4.836003,-0.609105,0.02435299,0.7771795,35.55838,-31.06755,-30.20524,990.3857
1.974734306,-7.671993,-7.475248,-3.494965,-0.6071598,0.01715919,0.7715921,35.55838,-31.06755,-30.20524,990.3857
1.979651928,-7.48653,-8.778784,-2.519664,-0.5968736,0.03024008,0.7811522,35.56107,-30.71578,-29.74707,990.3857
1.984570503,-6.8065,-9.904565,-1.483407,-0.5975122,0.0469167,0.7758657,35.56107,-30.71578,-29.74707,990.3857
1.989489555,-6.930142,-10.85259,-1.117669,-0.6045673,0.06316627,0.7643062,35.56107,-30.71578,-29.74707,990.3857
1.994407177,-7.239246,-12.09688,-1.117669,-0.5935184,0.09547391,0.7633092,35.56107,-30.71578,-29.74707,990.3857
1.999325752,-7.610172,-13.0449,-1.056713,-0.5933414,0.09561668,0.7817627,35.56107,-30.71578,-29.74707,990.384
2.004244328,-8.784769,-13.99293,-1.422451,-0.5999252,0.1133511,0.7692759,35.56107,-30.71578,-29.74707,990.384
2.009162426,-8.90841,-14.46694,-1.60532,-0.5909267,0.07689253,0.767062,35.56107,-30.71578,-29.74707,990.384
2.014081001,-9.155694,-15.35572,-1.727232,-0.5902372,0.05529639,0.774618,35.56107,-30.71578,-29.74707,990.384
2.018999577,-9.279336,-15.77048,-1.300538,-0.5931142,0.05757089,0.7819976,35.56107,-30.71578,-29.74707,990.384
2.023917675,-9.402978,-15.88898,-1.544363,-0.5784518,0.06350732,0.7844953,35.56107,-30.71578,-29.74707,990.384
2.028836250,-9.155694,-15.77048,-0.9957568,-0.5811538,0.05290942,0.8021424,35.55557,-30.7009,-30.19401,990.384
2.033754826,-8.475664,-14.34844,-0.6909752,-0.5634697,0.04327504,0.8041161,35.55557,-30.7009,-30.19401,990.384
2.038672924,-8.16656,-12.57089,-0.3861938,-0.5511823,0.05001906,0.8144277,35.55557,-30.7009,-30.19401,990.384
2.046051025,-7.548351,-8.186267,-0.2642812,-0.5452645,0.06299664,0.8274192,35.55557,-30.7009,-30.19401,990.384
2.050968647,-6.991963,-6.230963,-0.3861938,-0.5635549,0.05597511,0.8030674,35.55557,-30.7009,-30.19401,990.384
2.055887222,-6.991963,-4.690421,-0.3861938,-0.5614575,0.04414967,0.8104396,35.55557,-30.7009,-30.19401,990.384
2.060805798,-6.311933,-3.801646,-0.5690627,-0.5748225,0.05349971,0.7996817,35.55557,-30.7009,-30.19401,990.384
2.065723896,-5.570083,-3.386884,-0.7519315,-0.5722436,0.02385284,0.7953113,35.55557,-30.7009,-30.19401,990.384
2.070642471,-4.890053,-3.090626,-0.5690627,-0.581031,0.02181444,0.7958036,35.55557,-30.7009,-30.19401,990.384
2.075561047,-4.580948,-2.85362,-0.4471501,-0.5796953,0.03027706,0.7873243,35.16869,-30.30345,-31.01361,990.384
2.080479145,-3.962739,-2.912871,-0.3861938,-0.5831354,0.03654624,0.7894956,35.16869,-30.30345,-31.01361,990.384
2.085397720,-3.529993,-2.438858,-0.02045605,-0.5797378,0.03951987,0.7885921,35.16869,-30.30345,-31.01361,990.384
2.090321064,-3.220889,-2.379606,0.04050024,-0.5835786,0.02922148,0.78975,35.16869,-30.30345,-31.01361,990.384
2.095234394,-2.726322,-1.964845,0.2233691,-0.5811028,0.03545307,0.796727,35.16869,-30.30345,-31.01361,990.384
2.100152969,-2.479038,-1.846342,0.2843254,-0.5821983,0.03470519,0.7840881,35.16869,-30.30345,-31.01361,990.384
2.107530117,-1.737188,-1.78709,0.6500632,-0.5851266,0.03611368,0.7856139,35.16869,-30.30345,-31.01361,990.384
2.112448692,-1.489904,-1.78709,0.8329321,-0.5772245,0.0307322,0.7902318,35.16869,-30.30345,-31.01361,990.384
2.117367268,-1.304441,-1.668587,1.076757,-0.5737451,0.03162011,0.7965438,35.16869,-30.30345,-31.01361,990.384
2.122285366,-1.118979,-1.43158,1.19867,-0.578633,0.02192726,0.7909322,35.16869,-30.30345,-31.01361,990.3846
2.127203941,-0.8098741,-0.8390636,1.564407,-0.571301,0.03019812,0.795507,35.16038,-29.92192,-31.44931,990.3846
2.132122517,-0.5007696,-0.8390636,1.68632,-0.5714132,0.04102108,0.790514,35.16038,-29.92192,-31.44931,990.3846
2.137041092,-0.1916652,-0.779812,1.808233,-0.5713892,0.04676126,0.7965243,35.16038,-29.92192,-31.44931,990.3846
2.141959190,-0.006202482,-0.3650505,1.564407,-0.5763462,0.05021963,0.7918205,35.16038,-29.92192,-31.44931,990.3846
2.146877766,0.302902,-0.4835538,1.564407,-0.5695142,0.0478989,0.7887769,35.16038,-29.92192,-31.44931,990.3846
2.151795864,0.2410811,-0.5428054,1.625364,-0.5743697,0.04826951,0.7927128,35.16038,-29.92192,-31.44931,990.3846
2.156714439,0.7356482,-0.2465472,1.625364,-0.5728558,0.03662104,0.7903848,35.16038,-29.92192,-31.44931,990.3846
2.164092541,1.415678,-0.3650505,2.356839,-0.5686328,0.05098645,0.7806145,35.16038,-29.92192,-31.44931,990.3846
2.169010162,1.53932,-0.3650505,2.478752,-0.5725285,0.05381206,0.7841358,35.16038,-29.92192,-31.44931,990.3846
2.173928738,1.848424,-0.2465472,2.539708,-0.5660079,0.05066393,0.7990329,35.53144,-29.55845,-31.43726,990.3846
2.178846836,2.342991,0.1682143,2.661621,-0.5679393,0.04288383,0.7968572,35.53144,-29.55845,-31.43726,990.3846
2.183765411,2.775738,0.4644725,3.149271,-0.5590748,0.03946993,0.8010448,35.53144,-29.55845,-31.43726,990.3846
2.188683987,3.455767,1.056989,3.697878,-0.5555792,0.0533458,0.8169982,35.53144,-29.55845,-31.43726,990.3846
2.193602085,4.135798,1.768009,4.246484,-0.5547458,0.07581215,0.8157695,35.53144,-29.55845,-31.43726,990.3846
2.198520660,4.259439,2.953042,4.307441,-0.5493252,0.09024756,0.8288117,35.53144,-29.55845,-31.43726,990.3846
2.203439236,4.630364,3.841816,4.124572,-0.5552991,0.08894987,0.8171663,35.53144,-29.55845,-31.43726,990.3829
2.208357334,4.259439,4.256578,3.880747,-0.5530866,0.1062946,0.8036237,35.53144,-29.55845,-31.43726,990.3829
2.213275909,4.506723,4.730591,3.636921,-0.559253,0.09381586,0.8158981,35.53144,-29.55845,-31.43726,990.3829
2.218194485,4.197618,5.086101,2.905446,-0.5593437,0.1074908,0.8148807,35.53144,-29.55845,-31.43726,990.3829
2.225571632,4.073977,5.441611,2.113014,-0.5642434,0.104089,0.8118987,34.85434,-29.93416,-31.00304,990.3829
2.230490208,3.579409,5.974875,1.564407,-0.5632766,0.100262,0.8083693,34.85434,-29.93416,-31.00304,990.3829
2.235409260,3.393946,6.211882,0.8938883,-0.5633732,0.09996504,0.7981644,34.85434,-29.93416,-31.00304,990.3829
2.240326881,3.208484,6.50814,0.4671943,-0.5601764,0.07152183,0.8079079,34.85434,-29.93416,-31.00304,990.3829
2.245245457,3.579409,6.804399,0.2233691,-0.5674223,0.04958513,0.8038653,34.85434,-29.93416,-31.00304,990.3873
2.250164032,3.703051,7.21916,0.406238,-0.5623602,0.03821017,0.8146263,34.85434,-29.93416,-31.00304,990.3873
2.255082130,4.383081,8.107935,0.5891069,-0.5499425,0.02252391,0.8247032,34.85434,-29.93416,-31.00304,990.3873
2.260000706,5.495857,9.411471,1.625364,-0.5531675,-0.00874716,0.8261548,34.85434,-29.93416,-31.00304,990.3873
2.264919281,7.1032,11.18902,2.539708,-0.5530939,-0.0185318,0.8277826,34.85434,-29.93416,-31.00304,990.3873
2.269837380,8.46326,13.26283,3.880747,-0.5689043,0.01586977,0.8324141,34.85434,-29.93416,-31.00304,990.3873
2.274755955,9.699677,14.80337,4.246484,-0.5379953,0.0227094,0.8464602,34.85994,-30.66745,-31.02552,990.3873
2.279674530,10.44153,16.52167,4.917004,-0.5716506,0.01066068,0.8487778,34.85994,-30.66745,-31.02552,990.3873
2.284592629,12.11069,19.5435,5.892304,-0.5553123,0.03694355,0.885416,34.85994,-30.66745,-31.02552,990.3812
2.289511204,13.34711,21.55806,6.440911,-0.5329965,-0.03625787,0.8722041,34.85994,-30.66745,-31.02552,990.3812
2.296888352,15.57266,27.36472,8.391512,-0.5258451,-0.02713684,0.9093384,34.85994,-30.66745,-31.02552,990.3812
2.301806927,18.41642,31.80859,9.793507,-0.5286338,-0.0322643,0.9213353,34.85994,-30.66745,-31.02552,990.3812
2.306725502,20.33287,36.78573,10.89072,-0.5085558,0.0006534252,0.944075,34.85994,-30.66745,-31.02552,990.3812
2.311643601,21.69293,42.29613,12.35367,-0.525598,0.008070482,0.956591,34.85994,-30.66745,-31.02552,990.3812
2.316565514,23.79484,48.81382,13.38993,-0.461551,-0.02984444,1.03205,34.85994,-30.66745,-31.02552,990.3812
2.321480751,26.26768,57.99782,15.21862,-0.4217971,-0.05673606,1.080386,34.85994,-30.66745,-31.02552,990.3812
2.326398850,31.70791,70.79617,16.62061,-0.3374247,-0.008203596,1.237106,34.86185,-30.31356,-30.63119,990.3812
2.331317425,40.48648,92.66003,15.46244,-0.2199973,0.02845578,1.314518,34.86185,-30.31356,-30.63119,990.3812
2.336236000,44.13391,116.3014,12.23176,-0.2504115,0.2130123,1.367782,34.86185,-30.31356,-30.63119,990.3812
2.341154099,49.32687,144.5052,6.318998,-0.1106392,0.2270868,1.567612,34.86185,-30.31356,-30.63119,990.3812
2.346072674,54.70528,176.9159,-0.3861938,-0.1910909,0.2374651,1.600164,34.86185,-30.31356,-30.63119,990.3812
2.350991249,55.9417,206.3047,-3.921659,-0.2848714,0.2199526,1.501323,34.86185,-30.31356,-30.63119,990.3812
2.355909348,52.78884,230.6571,-11.41928,-0.3283737,0.3052761,1.404396,34.86185,-30.31356,-30.63119,990.3812
2.360827923,51.05785,251.0989,-20.98942,-0.3044858,0.3494943,1.372601,34.86185,-30.31356,-30.63119,990.3812
2.368205071,52.72702,274.6811,-43.17751,-0.8156154,0.5966808,1.473089,34.86185,-30.31356,-30.63119,990.3839
2.373123646,57.23994,278.3547,-40.19065,-0.187189,0.4249567,1.409502,36.34967,-30.83267,-26.42534,990.3839
2.378042221,55.81806,294.7081,-51.52852,-0.5927254,0.533326,1.368237,36.34967,-30.83267,-26.42534,990.3839
2.382960320,51.36696,306.3214,-67.68194,-1.434235,0.9579173,1.60482,36.34967,-30.83267,-26.42534,990.3839
2.387879372,51.4906,300.1,-72.37557,-0.2378216,0.4977655,1.326313,36.34967,-30.83267,-26.42534,990.3839
2.392797470,44.81394,311.1208,-81.21423,-0.78943,0.6102797,1.254819,36.34967,-30.83267,-26.42534,990.3839
2.397715569,37.82818,309.9358,-86.09074,-0.8573815,0.5932193,1.248033,36.34967,-30.83267,-26.42534,990.3839
2.402634144,30.22421,308.3953,-88.40708,-0.9173574,0.4337203,1.220105,36.34967,-30.83267,-26.42534,990.3821
2.407552719,27.75138,306.6177,-88.71186,-1.027452,0.2101132,1.179852,36.34967,-30.83267,-26.42534,990.3821
2.412470818,30.53332,300.0408,-85.29831,-1.287318,0.1704975,1.140415,36.34967,-30.83267,-26.42534,990.3821
2.417389393,35.35535,290.0865,-81.3971,-1.577191,-0.02472913,1.139933,36.34967,-30.83267,-26.42534,990.3821
2.422307968,46.174,275.0366,-81.51902,-1.659538,0.007671814,1.141648,41.59132,-32.96913,-16.82751,990.3821
2.427226067,56.99266,259.6904,-84.32301,-1.687628,0.2984758,1.044385,41.59132,-32.96913,-16.82751,990.3821
2.432144642,53.83979,249.9139,-83.16484,-1.423864,1.510152,1.395696,41.59132,-32.96913,-16.82751,990.3821
2.437063217,8.896006,220.8806,-95.17323,-1.787175,1.367082,1.673758,41.59132,-32.96913,-16.82751,990.3821
2.444440365,-32.8331,178.3972,-103.829,-0.9965089,0.9488991,1.799036,41.59132,-32.96913,-16.82751,990.3787
2.449358940,-45.19727,164.7693,-105.4748,-0.6707027,0.6078002,1.443124,41.59132,-32.96913,-16.82751,990.3787
2.454277038,-44.51725,143.7349,-102.1222,-1.008892,0.2418002,1.501169,41.59132,-32.96913,-16.82751,990.3787
2.459195614,-34.74954,120.0935,-91.15011,-0.4923865,0.1032248,1.619211,41.59132,-32.96913,-16.82751,990.3787
2.464114189,-20.46892,109.843,-82.00667,-0.1018762,0.2093588,1.450928,41.59132,-32.96913,-16.82751,990.3787
2.469037533,-7.301067,104.2141,-78.71503,0.01685749,0.2202369,1.343485,41.59132,-32.96913,-16.82751,990.3787
2.473950863,1.848424,98.52594,-75.66721,-0.04570782,0.2509264,1.31585,46.77814,-30.05013,-8.416918,990.3787
2.478869438,8.339618,89.69745,-74.44809,-0.1234554,0.3166974,1.256935,46.77814,-30.05013,-8.416918,990.3787
2.483787537,11.61613,77.96562,-74.87478,-0.1088051,0.3669956,1.234636,46.77814,-30.05013,-8.416918,990.3814
2.488706112,12.60526,65.40427,-76.15486,-0.0820333,0.3621767,1.218239,46.77814,-30.05013,-8.416918,990.3814
2.493624687,12.4198,52.25041,-77.06921,-0.02814814,0.3133097,1.196808,46.77814,-30.05013,-8.416918,990.3814
2.498542786,13.09983,39.74831,-77.80068,0.04650892,0.2646444,1.14851,46.77814,-30.05013,-8.416918,990.3814
2.503461361,14.76899,28.84601,-78.71503,0.1217054,0.2211908,1.108627,46.77814,-30.05013,-8.416918,990.3814
2.510838985,17.61275,15.57364,-79.50746,0.1975569,0.2019924,1.050096,46.77814,-30.05013,-8.416918,990.3814
2.515757084,18.29278,7.21916,-81.09232,0.1966062,0.2409656,1.026106,46.77814,-30.05013,-8.416918,990.3814
2.520675659,18.23096,-1.905593,-83.53058,0.1501359,0.2579018,0.9852743,47.88309,-25.16734,-6.538891,990.3814
2.525594234,18.23096,-12.63014,-85.725,0.0794709,0.2427804,0.9518675,47.88309,-25.16734,-6.538891,990.3796
2.530512333,19.09645,-24.95448,-86.82221,0.03091175,0.1847772,0.952834,47.88309,-25.16734,-6.538891,990.3796
2.535430908,21.44565,-37.87134,-86.27361,-0.01217417,0.131443,0.915548,47.88309,-25.16734,-6.538891,990.3796
2.540349007,24.47487,-51.14371,-84.07918,-0.01201951,0.09884039,0.9115882,47.88309,-25.16734,-6.538891,990.3796
2.545267582,27.87502,-64.00131,-80.97041,-0.007674894,0.08982787,0.9000963,47.88309,-25.16734,-6.538891,990.3796
2.550186157,31.27517,-76.20715,-76.9473,-0.0007776367,0.0917216,0.9064124,47.88309,-25.16734,-6.538891,990.3796
2.555104732,34.86078,-87.34647,-72.74131,-0.007522755,0.07603506,0.9074214,47.88309,-25.16734,-6.538891,990.3796
2.560022831,38.19911,-98.24876,-67.3162,-0.02810757,0.0662913,0.8970817,47.88309,-25.16734,-6.538891,990.3796
2.564941883,41.29015,-108.2623,-60.91579,-0.04792259,0.05987085,0.9179165,47.88309,-25.16734,-6.538891,990.3823
2.569859028,43.70117,-118.0388,-54.39347,-0.05668297,0.05970957,0.922353,48.14865,-21.87389,-8.162865,990.3823
2.574777603,45.67944,-126.9858,-46.83489,-0.07997376,0.03841121,0.9286588,48.14865,-21.87389,-8.162865,990.3823
2.579696655,47.3486,-135.4588,-38.17909,-0.1054237,0.03243184,0.923335,48.14865,-21.87389,-8.162865,990.3823
2.587073803,49.32687,-147.6646,-23.85436,-0.139096,0.03343456,0.9318976,48.14865,-21.87389,-8.162865,990.3823
2.591992378,48.70866,-154.3601,-13.67467,-0.1572085,0.0439124,0.936752,48.14865,-21.87389,-8.162865,990.3823
2.596910953,47.53406,-160.8185,-3.25114,-0.1689586,0.04527751,0.9364067,48.14865,-21.87389,-8.162865,990.3823
2.601829052,45.37033,-166.4474,7.355255,-0.1806912,0.04516223,0.9369848,48.14865,-21.87389,-8.162865,990.3823
2.606747627,42.65021,-170.7728,17.96165,-0.2059949,0.02395499,0.9374836,48.14865,-21.87389,-8.162865,990.3789
2.611666202,40.79559,-175.2167,29.23857,-0.2341444,-0.02059321,0.9328876,48.14865,-21.87389,-8.162865,990.3789
2.616584301,39.74463,-179.4828,41.00313,-0.2688022,-0.05333768,0.9199838,48.14865,-21.87389,-8.162865,990.3789
2.621502876,39.43552,-183.3934,52.64578,-0.2965844,-0.08366472,0.9114709,47.37392,-17.43749,-12.63033,990.3789
2.626426697,39.43552,-187.7188,64.4713,-0.3228764,-0.09473571,0.9171581,47.37392,-17.43749,-12.63033,990.3789
2.631339073,39.62099,-191.1553,75.19961,-0.3582345,-0.08561202,0.9080301,47.37392,-17.43749,-12.63033,990.3789
2.636259079,39.0646,-195.0067,84.70879,-0.3844167,-0.0573768,0.8984686,47.37392,-17.43749,-12.63033,990.3789
2.641176701,37.76636,-198.147,92.63311,-0.4040161,-0.04253456,0.9039606,47.37392,-17.43749,-12.63033,990.3789
2.648553848,35.78809,-202.1762,101.5937,-0.4283211,-0.05991522,0.9089438,47.37392,-17.43749,-12.63033,990.3754
2.653477192,35.72627,-203.9537,106.1654,-0.458607,-0.06315038,0.9110307,47.37392,-17.43749,-12.63033,990.3754
2.658390522,35.66445,-206.2053,110.0666,-0.4869538,-0.06247756,0.9137126,47.37392,-17.43749,-12.63033,990.3754
2.663309097,35.78809,-207.7458,112.5049,-0.5211142,-0.05665951,0.9253467,47.37392,-17.43749,-12.63033,990.3754
2.668227672,35.35535,-209.4641,114.0288,-0.5720725,-0.02896742,0.9329648,44.37383,-17.21919,-18.44686,990.3754
2.673145771,34.55167,-211.5379,115.4308,-0.6052684,-0.02070343,0.9446695,44.37383,-17.21919,-18.44686,990.3754
2.678064346,33.19162,-214.0265,115.8575,-0.6369689,5.625188E-05,0.9669588,44.37383,-17.21919,-18.44686,990.3754
2.682982922,31.46063,-216.1003,116.3451,-0.6626316,-0.005975227,0.9902816,44.37383,-17.21919,-18.44686,990.3754
2.687900543,29.79147,-217.6408,116.467,-0.6878597,-0.01816639,1.004178,44.37383,-17.21919,-18.44686,990.3764
2.695278644,27.75138,-220.8404,117.3814,-0.7291531,-0.02437576,1.029566,44.37383,-17.21919,-18.44686,990.3764
2.700196743,26.57678,-222.9735,117.8081,-0.7347078,-0.04287145,1.050868,44.37383,-17.21919,-18.44686,990.3764
2.705115318,25.40218,-224.1585,118.9053,-0.7606955,-0.03767185,1.047363,44.37383,-17.21919,-18.44686,990.3764
2.710033894,24.22759,-225.3436,119.0881,-0.7585545,-0.02306115,1.07549,44.37383,-17.21919,-18.44686,990.3764
2.714952469,22.68206,-225.6398,120.1244,-0.782734,-0.01225551,1.060012,44.37383,-17.21919,-18.44686,990.3764
2.719870567,20.70379,-224.8103,120.3682,-0.773985,-0.01639032,1.102535,38.46356,-19.47935,-24.41035,990.3764
2.724789143,18.47824,-223.2105,120.9168,-0.8085089,0.01423396,1.091662,38.46356,-19.47935,-24.41035,990.3764
2.729707241,16.19087,-221.1959,120.673,-0.8627409,0.01267721,1.096912,38.46356,-19.47935,-24.41035,990.3747
2.734625816,14.2126,-220.2479,120.673,-0.9240179,0.02976177,1.093107,38.46356,-19.47935,-24.41035,990.3747
2.739544392,12.7289,-220.1294,120.612,-1.010262,0.04956328,1.088624,38.46356,-19.47935,-24.41035,990.3747
2.744462013,10.56517,-220.7812,120.734,-1.085027,0.04973406,1.09604,38.46356,-19.47935,-24.41035,990.3747
2.749381065,8.401439,-222.4402,120.9168,-1.160601,0.06546384,1.079686,38.46356,-19.47935,-24.41035,990.3747
2.756758690,4.444902,-225.8176,121.0997,-1.237692,0.1068321,1.073876,38.46356,-19.47935,-24.41035,990.3747
2.761676788,0.6120064,-228.0099,120.673,-1.26022,0.1727246,1.060637,38.46356,-19.47935,-24.41035,990.3747
2.766595364,-4.395485,-228.6024,118.8443,-1.273648,0.2506441,1.034598,33.66464,-21.72138,-31.20145,990.3729
2.771513939,-9.093873,-227.9506,115.3088,-1.302122,0.3060233,1.00699,33.66464,-21.72138,-31.20145,990.3729
2.776432037,-12.67949,-225.8176,110.6152,-1.342347,0.341557,0.9657325,33.66464,-21.72138,-31.20145,990.3729
2.781350613,-13.66862,-222.7957,104.0319,-1.378743,0.3859631,0.9213291,33.66464,-21.72138,-31.20145,990.3729
2.786269188,-12.18492,-218.2334,96.90005,-1.414707,0.3832507,0.8928908,33.66464,-21.72138,-31.20145,990.3729
2.791187286,-7.610172,-212.3674,88.97573,-1.44383,0.3859164,0.8669963,33.66464,-21.72138,-31.20145,990.3729
2.796105862,1.230215,-206.0275,81.35619,-1.496072,0.3124686,0.8315682,33.66464,-21.72138,-31.20145,990.3729
2.801024437,13.09983,-200.1616,75.44344,-1.545387,0.2144702,0.7802775,33.66464,-21.72138,-31.20145,990.3729
2.805942535,28.24594,-194.7697,71.66415,-1.579276,0.131508,0.7147762,33.66464,-21.72138,-31.20145,990.3729
2.810861111,44.56666,-189.4371,69.65259,-1.59915,0.08756784,0.6557518,33.66464,-21.72138,-31.20145,990.3756
2.815779686,59.71278,-184.5192,67.76294,-1.598385,0.1135187,0.5987989,33.66464,-21.72138,-31.20145,990.3756
2.820697308,73.12791,-178.7718,65.08086,-1.592908,0.1548051,0.5325884,24.90437,-25.37759,-36.76727,990.3756
2.825616360,83.69928,-172.9058,61.78923,-1.590841,0.1396404,0.4840173,24.90437,-25.37759,-36.76727,990.3756
2.832993507,94.57976,-162.0628,56.85176,-1.586407,0.07594872,0.3974558,24.90437,-25.37759,-36.76727,990.3756
2.837912083,99.71089,-154.6563,54.41351,-1.600288,-0.00675041,0.3274288,24.90437,-25.37759,-36.76727,990.3756
2.842830658,103.2965,-146.8351,53.74299,-1.617661,-0.08549047,0.2527021,24.90437,-25.37759,-36.76727,990.3756
2.847748756,104.9657,-138.5399,54.41351,-1.643823,-0.1146956,0.1592433,24.90437,-25.37759,-36.76727,990.3756
2.852667332,103.7911,-130.7779,53.86491,-1.679522,-0.1034929,0.06521621,24.90437,-25.37759,-36.76727,990.3756
2.857585907,100.5146,-121.5347,51.54857,-1.710425,-0.03613178,-0.00422955,24.90437,-25.37759,-36.76727,990.3756
2.862504005,93.77608,-112.0544,46.67207,-1.758775,0.01145548,-0.1198064,24.90437,-25.37759,-36.76727,990.3756
2.867422581,84.31749,-101.8631,39.54018,-1.76697,0.06366538,-0.1768149,16.51924,-28.19108,-36.49037,990.3756
2.872341156,72.63335,-90.07204,29.72622,-1.721472,0.0934376,-0.208279,16.51924,-28.19108,-36.49037,990.3756
2.877258778,60.51645,-76.32566,18.51026,-1.648379,0.05940873,-0.2575523,16.51924,-28.19108,-36.49037,990.3756
2.882177830,49.51233,-61.39424,6.379954,-1.582795,0.03097432,-0.2706551,16.51924,-28.19108,-36.49037,990.3756
2.887096405,39.86827,-45.75181,-6.177042,-1.516778,0.02820518,-0.2737134,16.51924,-28.19108,-36.49037,990.3756
2.892014027,30.71878,-30.10938,-19.16073,-1.46255,0.06304005,-0.258961,16.51924,-28.19108,-36.49037,990.3765
2.896932602,22.24932,-15.23721,-31.41294,-1.416412,0.0737439,-0.2356908,16.51924,-28.19108,-36.49037,990.3765
2.904310226,12.17251,4.315829,-47.99306,-1.409517,0.08964574,-0.1701759,16.51924,-28.19108,-36.49037,990.3765
2.909228802,6.608633,14.86262,-56.22216,-1.403589,0.1416598,-0.1321418,16.51924,-28.19108,-36.49037,990.3765
2.914147377,1.415678,23.45411,-62.9883,-1.388079,0.1637896,-0.08252051,16.51924,-28.19108,-36.49037,990.3765
2.919065475,-3.28271,30.38655,-67.62098,-1.369752,0.1885826,-0.04351875,11.07637,-30.7074,-34.8551,990.3765
2.923984051,-7.177425,35.65995,-70.12019,-1.341086,0.2109225,0.00114591,11.07637,-30.7074,-34.8551,990.3765
2.928902626,-11.01032,40.57784,-70.79071,-1.276376,0.2290514,0.02741497,11.07637,-30.7074,-34.8551,990.3748
2.933820248,-13.66862,45.43647,-70.42497,-1.21445,0.2458977,0.06871732,11.07637,-30.7074,-34.8551,990.3748
2.938739300,-15.52325,50.0581,-68.35246,-1.105338,0.2907044,0.2018094,11.07637,-30.7074,-34.8551,990.3748
2.943657875,-126.3063,77.31386,-70.42497,-0.8481466,2.979777,2.859251,11.07637,-30.7074,-34.8551,990.3748
2.948575497,-168.2208,131.8846,-109.9247,-0.2959085,0.957314,-1.070128,11.07637,-30.7074,-34.8551,990.3748
2.955953598,-185.778,202.4533,-121.6283,-0.103201,-0.514895,0.5134562,11.07637,-30.7074,-34.8551,990.3748
2.960872173,-165.1298,193.1508,-89.19951,-0.2451374,-1.44326,0.8985311,11.07637,-30.7074,-34.8551,990.3748
2.965790272,-119.1351,212.9409,-47.3835,0.6505089,-1.285681,1.866331,11.81667,-31.05275,-35.69475,990.3748
2.970708847,-92.24297,219.8733,-3.312096,-0.1034979,-0.713927,1.528157,11.81667,-31.05275,-35.69475,990.3771
2.975627422,-79.63151,231.4274,23.56963,0.3065964,-0.42145,1.679343,11.81667,-31.05275,-35.69475,990.3771
2.980545521,-67.51462,262.5345,32.16447,0.1042362,-0.1126794,1.425802,11.81667,-31.05275,-35.69475,990.3771
2.985464096,-65.78363,290.916,18.14452,-0.01618733,-0.2500657,1.178647,11.81667,-31.05275,-35.69475,990.3771
2.990382671,-57.25235,311.5948,-1.666276,-0.7909009,-0.7796048,0.9597327,11.81667,-31.05275,-35.69475,990.3771
2.995300770,-40.68435,304.6624,-18.24639,-1.781635,-1.006698,0.7916164,11.81667,-31.05275,-35.69475,990.3771
3.000219345,-18.86157,278.4139,-35.07032,-2.476395,-1.048513,0.8450167,11.81667,-31.05275,-35.69475,990.3771
3.005137920,3.270305,239.1893,-49.15123,-2.845596,-0.9853981,0.8413307,11.81667,-31.05275,-35.69475,990.3771
3.010055542,20.64197,192.5583,-55.79546,-2.639299,-0.7842766,0.8519124,11.81667,-31.05275,-35.69475,990.3796
3.014974594,35.84991,157.5998,-57.38033,-2.309825,-0.1712311,0.8023459,17.96989,-27.17345,-34.34657,990.3796
3.022351742,28.98779,128.448,-53.17434,-1.34016,0.7644396,1.147754,17.96989,-27.17345,-34.34657,990.3796
3.027270317,12.35798,120.9231,-46.65202,-1.202295,1.238621,1.025876,17.96989,-27.17345,-34.34657,990.3796
3.032188892,-9.959366,112.7463,-38.42292,-1.002347,1.333063,0.870435,17.96989,-27.17345,-34.34657,990.3796
3.037106991,-31.04029,105.8139,-30.62051,-0.8303973,1.339776,0.7502831,17.96989,-27.17345,-34.34657,990.3796
3.042026043,-49.77202,103.2068,-28.42609,-0.7393429,1.101812,0.7647263,17.96989,-27.17345,-34.34657,990.3796
3.046944141,-59.35426,100.3627,-33.05877,-0.6560662,0.5026013,0.7147275,17.96989,-27.17345,-34.34657,990.3796
3.051862240,-60.28157,97.45941,-39.27631,-0.5802143,0.1233467,0.739817,17.96989,-27.17345,-34.34657,990.3779
3.056780815,-55.27408,93.3118,-48.9074,-0.7590616,-0.04825695,0.7027664,17.96989,-27.17345,-34.34657,990.3779
3.061699390,-48.78289,84.66106,-54.2106,-0.8728127,-0.01400817,0.6950874,17.96989,-27.17345,-34.34657,990.3779
3.066617012,-44.45543,76.30658,-57.74606,-0.9558246,0.3074858,0.7036489,25.28596,-26.58701,-31.75441,990.3779
3.071535587,-44.70271,66.58931,-57.74606,-0.9448404,0.3162908,0.6815064,25.28596,-26.58701,-31.75441,990.3779
3.076454639,-47.0519,56.04251,-51.71139,-1.116021,0.2573651,0.5955679,25.28596,-26.58701,-31.75441,990.3779
3.081372261,-47.23736,46.44375,-50.91896,-0.8712981,-0.01746123,0.6978775,25.28596,-26.58701,-31.75441,990.3779
3.088750362,-41.79713,41.2296,-49.57792,-0.7015544,-0.3360432,0.8091102,25.28596,-26.58701,-31.75441,990.3779
3.093668938,-36.04778,35.42294,-43.90899,-0.8778152,-0.2981918,0.8137125,25.28596,-26.58701,-31.75441,990.3789
3.098587036,-31.59668,28.90526,-37.69144,-0.8752657,-0.2101965,0.7262035,25.28596,-26.58701,-31.75441,990.3789
3.103505611,-28.62928,24.28363,-32.69303,-0.7760986,-0.1733834,0.7867762,25.28596,-26.58701,-31.75441,990.3789
3.108423710,-24.36363,18.23997,-26.1707,-0.9206405,-0.2059697,0.7912875,25.28596,-26.58701,-31.75441,990.3789
3.113342285,-20.83984,12.84807,-20.50177,-0.8092916,-0.2687715,0.7859324,28.9506,-24.49217,-31.29783,990.3789
3.118260860,-16.20328,10.06324,-16.78344,-0.6637489,-0.2010211,0.8053604,28.9506,-24.49217,-31.29783,990.3789
3.123178482,-13.79226,10.18174,-13.73562,-0.6171516,-0.03889612,0.8169736,28.9506,-24.49217,-31.29783,990.3789
3.128097057,-12.61766,9.470723,-12.21171,-0.6351245,0.03059996,0.821777,28.9506,-24.49217,-31.29783,990.3789
3.133016109,-11.44307,7.870928,-10.32207,-0.6318707,0.0208305,0.7981315,28.9506,-24.49217,-31.29783,990.3773
3.137933731,-10.70122,7.989432,-10.1392,-0.6101377,-0.04399855,0.7803374,28.9506,-24.49217,-31.29783,990.3773
3.142852306,-9.155694,6.804399,-7.274255,-0.6544575,-0.09056084,0.7714397,28.9506,-24.49217,-31.29783,990.3773
3.147770882,-7.48653,5.915624,-5.567479,-0.6377214,-0.02747463,0.7704118,28.9506,-24.49217,-31.29783,990.3773
3.152688980,-6.250112,5.263855,-4.043571,-0.6047672,-0.02898503,0.7885432,28.9506,-24.49217,-31.29783,990.3773
3.157607555,-5.013694,5.145352,-2.09297,-0.5641636,0.02343389,0.8214504,28.9506,-24.49217,-31.29783,990.3773
3.164985657,-4.02456,6.271133,-1.727232,-0.5898662,0.05169167,0.8109146,30.73651,-22.35597,-31.61147,990.3773
3.169903755,-3.406352,6.330385,-1.178626,-0.6229392,0.07271692,0.7924386,30.73651,-22.35597,-31.61147,990.3754
3.174822331,-2.911784,6.211882,-1.483407,-0.6001375,0.006758632,0.7833393,30.73651,-22.35597,-31.61147,990.3754
3.179740906,-2.169934,6.271133,0.5891069,-0.6001056,0.01441221,0.791353,30.73651,-22.35597,-31.61147,990.3754
3.184658527,-1.366262,6.86365,1.930145,-0.5899298,0.02047206,0.7851518,30.73651,-22.35597,-31.61147,990.3754
3.189577580,-1.057158,7.515418,1.076757,-0.6065838,0.1423414,0.8066751,30.73651,-22.35597,-31.61147,990.3754
3.194496155,-0.8098741,7.396915,0.5891069,-0.596886,0.03412129,0.7822477,30.73651,-22.35597,-31.61147,990.3754
3.199415207,-0.3771278,7.041405,1.442495,-0.5737898,0.01290103,0.7804068,30.73651,-22.35597,-31.61147,990.3754
3.204332352,-0.006202482,7.396915,1.015801,-0.5884308,0.09706878,0.7846822,30.73651,-22.35597,-31.61147,990.3754
3.209251404,0.1792602,6.745147,1.808233,-0.5872552,0.06101777,0.783031,30.73651,-22.35597,-31.61147,990.3754
3.214169025,-0.5007696,6.745147,0.04050024,-0.5919547,0.07408615,0.760183,31.11228,-22.00526,-31.21633,990.3781
3.219087601,-0.4389487,6.389637,0.5891069,-0.5937445,0.08194643,0.7822987,31.11228,-22.00526,-31.21633,990.3781
3.226465225,-0.871695,6.034127,0.5891069,-0.6111365,0.1175181,0.7758135,31.11228,-22.00526,-31.21633,990.3781
3.231383801,-1.304441,5.678617,0.1624128,-0.5947382,0.0496615,0.7608793,31.11228,-22.00526,-31.21633,990.3781
3.236302376,-2.479038,5.560114,0.1624128,-0.6028388,0.1079811,0.7681565,31.11228,-22.00526,-31.21633,990.3781
3.241219997,-3.529993,5.086101,-1.056713,-0.6009856,0.1130181,0.7605343,31.11228,-22.00526,-31.21633,990.3781
3.246139050,-4.086381,4.552836,-0.1423686,-0.5959897,0.1017701,0.7645025,31.11228,-22.00526,-31.21633,990.3781
3.251057625,-4.642769,4.138074,-0.8738441,-0.586578,0.1088571,0.7811607,31.11228,-22.00526,-31.21633,990.3748
3.255975246,-5.38462,4.197326,-0.7519315,-0.5956421,0.06060024,0.775318,31.11228,-22.00526,-31.21633,990.3748
3.260893822,-4.890053,4.138074,-0.3861938,-0.5946416,0.03742163,0.7633993,31.11228,-22.00526,-31.21633,990.3748
3.265812874,-5.631903,3.901068,0.1624128,-0.5881467,0.02467933,0.769735,30.74392,-22.01697,-30.7702,990.3748
3.270730496,-4.642769,4.197326,0.8329321,-0.5992305,0.04113834,0.7970581,30.74392,-22.01697,-30.7702,990.3748
3.275649071,-4.210023,4.315829,1.076757,-0.6001316,-0.0009674951,0.7792072,30.74392,-22.01697,-30.7702,990.3748
3.283027172,-3.220889,5.263855,2.356839,-0.5979825,0.03771482,0.7721758,30.74392,-22.01697,-30.7702,990.3748
3.287945271,-2.726322,5.204604,2.722577,-0.6030114,0.05818746,0.7704458,30.74392,-22.01697,-30.7702,990.3748
3.292863846,-2.664501,5.323107,2.600664,-0.5937783,0.07043885,0.7717339,30.74392,-22.01697,-30.7702,990.3773
3.297782421,-2.540859,4.908346,2.722577,-0.6071371,0.07784832,0.7604282,30.74392,-22.01697,-30.7702,990.3773
3.302700520,-2.60268,4.256578,2.234927,-0.6066266,0.08070467,0.7643999,30.74392,-22.01697,-30.7702,990.3773
3.307619095,-2.788143,3.427055,1.869189,-0.6096869,0.08477701,0.7538739,30.74392,-22.01697,-30.7702,990.3773
3.312537670,-2.788143,2.834538,1.503451,-0.6092443,0.08390635,0.7485014,31.11778,-22.02014,-30.76939,990.3773
3.317455292,-2.849963,1.708757,0.8329321,-0.6096902,0.09539136,0.7600406,31.11778,-22.02014,-30.76939,990.3773
3.322374344,-3.035426,0.9384857,0.406238,-0.6058434,0.08542679,0.7470657,31.11778,-22.02014,-30.76939,990.3773
3.327292919,-3.406352,0.1682143,-0.1423686,-0.5886555,0.09460682,0.7598428,31.11778,-22.02014,-30.76939,990.3773
3.332210541,-3.406352,-0.3650505,-0.8738441,-0.5974151,0.1026409,0.7693975,31.11778,-22.02014,-30.76939,990.3773
3.337129116,-3.715456,-0.4243021,-1.361495,-0.5953344,0.08795448,0.7732793,31.11778,-22.02014,-30.76939,990.3773
3.342048168,-4.148202,-0.5428054,-1.727232,-0.5933919,0.0812481,0.7677074,31.11778,-22.02014,-30.76939,990.3773
3.346965790,-4.642769,-0.6613087,-1.666276,-0.6095372,0.06809596,0.7591642,31.11778,-22.02014,-30.76939,990.3773
3.354343891,-4.642769,-1.313077,-1.788189,-0.5917617,0.06551889,0.7749583,31.11778,-22.02014,-30.76939,990.3773
3.359261990,-4.642769,-1.550083,-1.849145,-0.5824642,0.06462814,0.7748534,31.11778,-22.02014,-30.76939,990.3773
3.364180565,-4.766411,-1.194574,-1.849145,-0.5751692,0.09032813,0.7862993,31.4838,-21.70289,-31.20616,990.3773
3.369099140,-4.580948,-0.6613087,-2.397752,-0.5830338,0.07731471,0.7742938,31.4838,-21.70289,-31.20616,990.3773
3.374016762,-4.086381,-0.9575669,-2.153926,-0.5925506,0.05261045,0.7866892,31.4838,-21.70289,-31.20616,990.3817
3.378935814,-3.591814,-0.4835538,-2.214883,-0.5974609,0.03524588,0.7740344,31.4838,-21.70289,-31.20616,990.3817
3.383854389,-3.28271,-0.4835538,-1.971057,-0.5925776,0.04157215,0.7771104,31.4838,-21.70289,-31.20616,990.3817
3.388772011,-2.849963,-0.7205603,-1.971057,-0.5911626,0.04506083,0.7738119,31.4838,-21.70289,-31.20616,990.3817
3.393690586,-2.911784,-0.5428054,-1.60532,-0.5921962,0.04660494,0.7690146,31.4838,-21.70289,-31.20616,990.3817
3.398609638,-2.726322,-0.9575669,-1.788189,-0.5892819,0.06354599,0.7773024,31.4838,-21.70289,-31.20616,990.3817
3.403527260,-2.479038,-0.8983153,-1.971057,-0.5926559,0.05136586,0.7749974,31.4838,-21.70289,-31.20616,990.3817
3.408445835,-2.169934,-0.8983153,-1.910101,-0.5867816,0.05960529,0.7805543,31.4838,-21.70289,-31.20616,990.3817
3.413365841,-2.108113,-1.016819,-1.544363,-0.5877814,0.06012014,0.7786368,31.48142,-21.99567,-31.59861,990.38
3.420742035,-1.675367,-0.602057,-0.9348004,-0.5927583,0.05879503,0.7689245,31.48142,-21.99567,-31.59861,990.38
3.425660610,-1.860829,-0.779812,-1.300538,-0.5891447,0.04158499,0.7780538,31.48142,-21.99567,-31.59861,990.38
3.430578232,-1.613546,-0.779812,-0.3861938,-0.5990326,0.03302225,0.7618377,31.48142,-21.99567,-31.59861,990.38
3.435497284,-0.6862323,-0.602057,-0.3861938,-0.5897212,0.05717793,0.7785584,31.48142,-21.99567,-31.59861,990.38
3.440415859,-0.253486,-0.9575669,0.1014565,-0.5872301,0.0590409,0.7844241,31.48142,-21.99567,-31.59861,990.38
3.445335865,-0.1916652,-0.779812,0.2233691,-0.5873901,0.08008149,0.7807302,31.48142,-21.99567,-31.59861,990.38
3.450252056,-0.06802338,-0.602057,-0.1423686,-0.5922919,0.07620139,0.7772473,31.48142,-21.99567,-31.59861,990.38
3.455171108,0.2410811,-0.7205603,-0.2642812,-0.5878488,0.080501,0.7841462,31.48142,-21.99567,-31.59861,990.3826
3.460088730,0.3647228,-0.7205603,-0.5081064,-0.5932261,0.08671619,0.7882739,31.85485,-21.33941,-31.19411,990.3826
3.465007305,0.5501855,-0.1872955,-0.9348004,-0.5868044,0.08954404,0.7965659,31.85485,-21.33941,-31.19411,990.3826
3.469925880,0.4883646,-0.009540603,-1.788189,-0.5903282,0.1191186,0.8043405,31.85485,-21.33941,-31.19411,990.3826
3.474843979,0.4265437,-0.1280439,-3.25114,-0.5806161,0.1415195,0.8108055,31.85485,-21.33941,-31.19411,990.3826
3.479762554,-0.06802338,0.5237242,-4.165484,-0.5801458,0.1381845,0.8068104,31.85485,-21.33941,-31.19411,990.3826
3.484681129,0.05561841,0.7607307,-5.140785,-0.5704098,0.0790734,0.8164881,31.85485,-21.33941,-31.19411,990.3826
3.489599228,0.9829317,2.064267,-5.323654,-0.5912802,0.04386158,0.8116462,31.85485,-21.33941,-31.19411,990.3826
3.496977329,2.342991,3.486306,-4.287396,-0.5821716,0.005262898,0.819559,31.85485,-21.33941,-31.19411,990.3809
3.501895904,3.888514,4.671339,-3.25114,-0.5721653,-0.01147474,0.8325351,31.85485,-21.33941,-31.19411,990.3809
3.506813526,5.928603,6.626644,-2.09297,-0.5734522,-0.0436576,0.8315139,31.85485,-21.33941,-31.19411,990.3809
3.511732578,8.030514,8.404193,-0.8738441,-0.5797396,-0.0428854,0.8393588,31.11545,-21.7146,-30.76003,990.3809
3.516652107,10.99792,10.30025,1.259626,-0.5801544,-0.05364023,0.840474,31.11545,-21.7146,-30.76003,990.3809
3.521568775,12.97618,12.61106,2.661621,-0.5793295,-0.04465833,0.8300734,31.11545,-21.7146,-30.76003,990.3809
3.526487350,15.57266,14.38861,4.368397,-0.5818466,-0.01850501,0.8387012,31.11545,-21.7146,-30.76003,990.3809
3.531405926,17.61275,16.10691,5.160829,-0.5768641,-0.008993548,0.8540168,31.11545,-21.7146,-30.76003,990.3809
3.536324024,19.28191,18.95098,6.440911,-0.5322649,-0.03527187,0.897963,31.11545,-21.7146,-30.76003,990.3809
3.541242599,21.07472,23.92812,8.208643,-0.5092744,-0.05482129,0.9369614,31.11545,-21.7146,-30.76003,990.3809
3.546161175,22.92935,30.3273,10.70785,-0.5122748,-0.0455597,0.9358263,31.11545,-21.7146,-30.76003,990.3809
3.553538799,25.95857,39.57056,13.69471,-0.5307008,-0.06770705,0.9896473,31.11545,-21.7146,-30.76003,990.3809
3.558457374,29.54418,47.45103,15.5234,-0.4523287,-0.1154324,1.022918,31.85755,-20.98765,-30.73594,990.3809
3.563377380,32.20248,56.81279,19.11982,-0.4517467,-0.07990327,1.105137,31.85755,-20.98765,-30.73594,990.3809
3.568294048,35.97356,70.08515,20.8266,-0.388889,-0.1101893,1.16337,31.85755,-20.98765,-30.73594,990.3809
3.573212623,37.5809,84.83881,23.63059,-0.3925562,-0.0875723,1.151987,31.85755,-20.98765,-30.73594,990.3809
3.578131199,38.19911,100.185,25.58119,-0.3696211,-0.04093502,1.27662,31.85755,-20.98765,-30.73594,990.3852
3.583048820,40.91923,120.6861,27.10509,-0.2966522,0.05022518,1.44354,31.85755,-20.98765,-30.73594,990.3852
3.587967396,44.6903,152.0894,24.60589,-0.09470965,0.2522905,1.713464,31.85755,-20.98765,-30.73594,990.3852
3.592885494,54.458,189.2402,11.80506,-0.1821392,0.4565628,1.546909,31.85755,-20.98765,-30.73594,990.3852
3.597804069,57.1163,213.7111,-0.3252375,-0.3978428,0.451714,1.391211,31.85755,-20.98765,-30.73594,990.3852
3.602722645,63.97842,235.101,-14.22327,-0.3877918,0.4445342,1.414689,31.85755,-20.98765,-30.73594,990.3852
3.607640743,64.90573,254.7725,-26.29262,-0.4201899,0.4724399,1.419734,32.28112,-22.86073,-27.85242,990.3852
3.612559318,66.45126,272.074,-40.1297,-0.3995566,0.5173116,1.507429,32.28112,-22.86073,-27.85242,990.3852
3.619937420,67.62585,292.101,-58.1118,-0.5554408,0.6134582,1.378269,32.28112,-22.86073,-27.85242,990.3809
3.624855518,61.87651,300.5148,-71.21741,-0.6004252,0.742237,1.408015,32.28112,-22.86073,-27.85242,990.3809
3.629774094,54.58164,307.6842,-81.57997,-0.5968238,0.7134559,1.358023,32.28112,-22.86073,-27.85242,990.3809
3.634692669,46.35947,312.6021,-90.6015,-0.6526779,0.7512398,1.371346,32.28112,-22.86073,-27.85242,990.3809
3.639610290,36.77723,319.1198,-100.5983,-0.6752623,0.7333645,1.351537,32.28112,-22.86073,-27.85242,990.3809
3.644528866,26.57678,326.4077,-107.5474,-0.6711605,0.5831008,1.329692,32.28112,-22.86073,-27.85242,990.3809
3.649458885,19.59102,331.0886,-112.18,-0.8493291,0.5818074,1.366071,32.28112,-22.86073,-27.85242,990.3809
3.654365539,8.092335,332.3329,-110.778,-0.9857363,0.5355695,1.14042,32.28112,-22.86073,-27.85242,990.3809
3.659284115,7.535946,327.7113,-110.3513,-1.396892,0.395151,1.124726,36.02184,-24.96963,-18.70476,990.3809
3.664202213,10.75063,315.2092,-107.6693,-1.705006,0.4116511,1.086999,36.02184,-24.96963,-18.70476,990.3809
3.669120788,14.70717,299.389,-106.694,-2.044565,0.3466372,0.9337867,36.02184,-24.96963,-18.70476,990.3809
3.674039364,19.8383,283.7466,-111.6314,-2.076836,0.790287,0.9026358,36.02184,-24.96963,-18.70476,990.3809
3.678957462,-9.217515,263.2455,-119.0071,-2.16919,1.152341,1.032501,36.02184,-24.96963,-18.70476,990.3809
3.683876038,-32.70945,242.8629,-125.8952,-1.802119,0.9864872,1.259655,36.02184,-24.96963,-18.70476,990.3809
3.688794613,-53.11035,207.9045,-126.0781,-1.585253,0.4622159,1.515879,36.02184,-24.96963,-18.70476,990.3809
3.696171760,-54.1613,189.655,-106.4501,-0.7537814,0.4748377,1.419636,36.02184,-24.96963,-18.70476,990.3869
3.701090336,-49.33928,176.5603,-90.54055,-0.9345425,0.2327155,1.292944,36.02184,-24.96963,-18.70476,990.3869
3.706009388,-38.70608,151.6154,-71.76601,-1.047802,0.2583493,1.432587,36.02184,-24.96963,-18.70476,990.3869
3.710927010,-30.1748,135.499,-53.90582,-0.4187888,0.4817412,1.418564,42.35935,-21.83964,-7.728446,990.3869
3.715845585,-25.53823,132.1216,-47.56636,-0.116523,0.5282055,1.243267,42.35935,-21.83964,-7.728446,990.3869
3.720764160,-23.25086,129.5738,-41.47073,-0.1494761,0.400972,1.146235,42.35935,-21.83964,-7.728446,990.3869
3.725683689,-19.72707,124.8337,-35.98467,-0.2975321,0.3207716,1.061367,42.35935,-21.83964,-7.728446,990.3869
3.730601788,-13.29769,115.7089,-31.83964,-0.2916236,0.2782947,0.9885826,42.35935,-21.83964,-7.728446,990.3869
3.735525131,-6.497396,105.5769,-29.76713,-0.2615009,0.3315072,1.000238,42.35935,-21.83964,-7.728446,990.3852
3.740437508,-2.973605,94.37833,-29.34043,-0.2261093,0.4061966,1.013509,42.35935,-21.83964,-7.728446,990.3852
3.745356083,-2.108113,83.35752,-31.29103,-0.1602029,0.4065333,1.000841,42.35935,-21.83964,-7.728446,990.3852
3.750274658,-1.675367,71.92196,-33.36355,-0.1429881,0.3524965,0.9776034,42.35935,-21.83964,-7.728446,990.3852
3.757651806,0.4265437,54.32422,-34.52172,-0.09660473,0.2233795,0.9405521,45.33556,-19.53978,-2.218222,990.3852
3.762570858,3.579409,42.88865,-33.30259,-0.04897605,0.1655817,0.9242276,45.33556,-19.53978,-2.218222,990.3852
3.767488480,6.299529,31.57159,-31.65677,-0.01591441,0.1662544,0.9040709,45.33556,-19.53978,-2.218222,990.3852
3.772407055,7.845051,20.66928,-30.01095,0.005472934,0.1864696,0.9026014,45.33556,-19.53978,-2.218222,990.3852
3.777325630,7.350484,9.648478,-29.03565,0.01924355,0.2066751,0.872062,45.33556,-19.53978,-2.218222,990.3852
3.782243729,5.619499,-0.8983153,-28.60896,0.03272664,0.2009342,0.8465195,45.33556,-19.53978,-2.218222,990.3852
3.787162304,3.455767,-11.68211,-28.48704,0.04725676,0.1945877,0.8277464,45.33556,-19.53978,-2.218222,990.3852
3.792080879,1.53932,-21.93265,-29.03565,0.06238215,0.1634509,0.8047749,45.33556,-19.53978,-2.218222,990.3852
3.796998978,0.7356482,-32.24244,-29.64521,0.04622726,0.1411557,0.7896266,45.33556,-19.53978,-2.218222,990.3852
3.801917553,1.724782,-43.14474,-29.58426,-0.004095763,0.09769156,0.7687392,45.33556,-19.53978,-2.218222,990.3852
3.806836128,4.135798,-55.23207,-29.03565,-0.0729564,0.05830996,0.7554177,45.65723,-18.85165,-0.9181061,990.3852
3.814213276,9.452394,-75.67389,-25.74401,-0.1408579,0.01897348,0.7401477,45.65723,-18.85165,-0.9181061,990.3852
3.819132328,13.09983,-90.01279,-22.14759,-0.1322628,-0.006081682,0.7538399,45.65723,-18.85165,-0.9181061,990.3875
3.824050903,17.11818,-103.0481,-17.75874,-0.1189775,-0.003706497,0.7635177,45.65723,-18.85165,-0.9181061,990.3875
3.828968525,20.02377,-114.8392,-12.94319,-0.09494162,0.01614077,0.7828927,45.65723,-18.85165,-0.9181061,990.3875
3.833887100,22.37296,-124.912,-8.066687,-0.095442,0.02483731,0.7870599,45.65723,-18.85165,-0.9181061,990.3875
3.838806152,23.79484,-134.2738,-2.946358,-0.1210436,0.04759746,0.78363,45.65723,-18.85165,-0.9181061,990.3875
3.843723774,24.16577,-142.6283,2.661621,-0.1484419,0.0560506,0.7880101,45.65723,-18.85165,-0.9181061,990.3875
3.848642349,23.6712,-150.805,9.062032,-0.1733779,0.06401124,0.7938108,45.65723,-18.85165,-0.9181061,990.3875
3.853560924,21.94021,-158.7447,16.19392,-0.1914115,0.06710524,0.8023121,45.65723,-18.85165,-0.9181061,990.3875
3.858479023,19.90012,-165.9142,23.87441,-0.2142073,0.06894435,0.8234362,45.61546,-18.02056,-3.832659,990.3841
3.863397598,17.05636,-172.1948,32.10351,-0.2246986,0.05193922,0.8409418,45.61546,-18.02056,-3.832659,990.3841
3.868316174,14.58353,-178.0015,41.06409,-0.2533903,0.0152034,0.8356297,45.61546,-18.02056,-3.832659,990.3841
3.873234272,12.7289,-183.5711,50.51231,-0.2928194,-0.01299229,0.8379625,45.61546,-18.02056,-3.832659,990.3841
3.878152847,11.73977,-189.3185,59.89958,-0.3250925,-0.02824014,0.8294844,45.61546,-18.02056,-3.832659,990.3841
3.885529995,10.31789,-197.91,73.24901,-0.3636964,-0.0416684,0.8250008,45.61546,-18.02056,-3.832659,990.3841
3.890448570,8.896006,-203.0649,80.80759,-0.3716231,-0.03190016,0.8205237,45.61546,-18.02056,-3.832659,990.3841
3.895367622,8.710544,-207.6273,87.57374,-0.3862222,-0.0341005,0.8268849,45.61546,-18.02056,-3.832659,990.3841
3.900285244,7.78323,-211.5379,93.4865,-0.3896255,-0.04188481,0.8242357,45.61546,-18.02056,-3.832659,990.3884
3.905203819,7.474125,-214.619,98.05822,-0.4025932,-0.05837024,0.8388651,44.86561,-17.54126,-8.868797,990.3884
3.910122395,7.474125,-216.7521,101.9594,-0.4407972,-0.0600507,0.8323273,44.86561,-17.54126,-8.868797,990.3884
3.915040493,7.597767,-219.7739,104.7634,-0.4630826,-0.0645164,0.8517883,44.86561,-17.54126,-8.868797,990.3884
3.919959068,8.339618,-222.3217,106.775,-0.5052412,-0.07290193,0.8368139,44.86561,-17.54126,-8.868797,990.3884
3.924877644,9.761498,-224.6325,108.116,-0.5400719,-0.09613153,0.8625739,44.86561,-17.54126,-8.868797,990.3884
3.929797173,11.12156,-228.3061,108.9694,-0.5624832,-0.09649834,0.8714857,44.86561,-17.54126,-8.868797,990.3884
3.934714317,13.22347,-231.4465,109.457,-0.599054,-0.09607308,0.8834522,44.86561,-17.54126,-8.868797,990.3884
3.939632893,15.13992,-233.5203,109.2132,-0.6158453,-0.095888,0.9175835,44.86561,-17.54126,-8.868797,990.3867
3.944550991,17.18,-236.3643,108.7865,-0.6548063,-0.09028652,0.9384753,44.86561,-17.54126,-8.868797,990.3867
3.949469566,19.15827,-238.9122,108.0551,-0.6868571,-0.08426264,0.9661214,44.86561,-17.54126,-8.868797,990.3867
3.954388142,20.95108,-241.5192,107.5674,-0.7115049,-0.08601641,0.9958851,42.60074,-18.31286,-16.37561,990.3867
3.961765289,23.60938,-244.1856,106.2873,-0.7609646,-0.07860123,1.045082,42.60074,-18.31286,-16.37561,990.3867
3.966683865,24.84579,-246.4371,106.3483,-0.7961684,-0.05193283,1.062734,42.60074,-18.31286,-16.37561,990.3867
3.971602917,25.40218,-248.8665,105.5558,-0.8547479,-0.018916,1.094862,42.60074,-18.31286,-16.37561,990.3867
3.976520538,24.66033,-250.881,105.373,-0.9134544,0.01337993,1.113373,42.60074,-18.31286,-16.37561,990.3867
3.981439114,22.37296,-254.0806,105.0072,-0.9628525,0.06453343,1.145037,42.60074,-18.31286,-16.37561,990.3849
3.986357689,18.60188,-256.9247,105.1901,-1.019079,0.07894401,1.156156,42.60074,-18.31286,-16.37561,990.3849
3.991275787,14.15078,-259.7688,105.5558,-1.05605,0.09269511,1.185547,42.60074,-18.31286,-16.37561,990.3849
3.996194363,9.514215,-262.3758,105.7997,-1.082833,0.09705381,1.200473,42.60074,-18.31286,-16.37561,990.3849
4.001112938,5.495857,-264.1534,106.4092,-1.122148,0.07780163,1.220085,42.60074,-18.31286,-16.37561,990.3849
4.006031036,2.590275,-266.1679,107.8112,-1.178293,0.06167719,1.221,37.04399,-21.23932,-24.46776,990.3849
4.010949612,0.8592899,-267.827,109.457,-1.241734,0.054575,1.231489,37.04399,-21.23932,-24.46776,990.3849
4.015868187,-0.9335158,-269.96,111.4686,-1.291743,0.06738365,1.226969,37.04399,-21.23932,-24.46776,990.3849
4.020786285,-3.159068,-271.8561,112.6268,-1.339935,0.1325518,1.240136,37.04399,-21.23932,-24.46776,990.3876
4.025704861,-5.941008,-273.2189,112.3829,-1.392637,0.1786007,1.230392,37.04399,-21.23932,-24.46776,990.3876
4.030623436,-9.52662,-274.3447,111.3467,-1.445683,0.206529,1.22444,37.04399,-21.23932,-24.46776,990.3876
4.038000584,-14.41047,-273.3374,108.116,-1.520284,0.2222767,1.207592,37.04399,-21.23932,-24.46776,990.3876
4.042919159,-16.75966,-271.7376,105.1901,-1.590844,0.2305581,1.148716,37.04399,-21.23932,-24.46776,990.3876
4.047837257,-17.68698,-269.486,101.2889,-1.668878,0.282414,1.051485,37.04399,-21.23932,-24.46776,990.3876
4.052755833,-18.18155,-268.3602,95.19328,-1.757767,0.4481058,0.9128373,30.36555,-23.43786,-32.09292,990.3876
4.057674408,-19.17068,-265.9309,85.07453,-1.830767,0.5773375,0.8272704,30.36555,-23.43786,-32.09292,990.3876
4.062592506,-17.81062,-260.776,72.63944,-1.88601,0.53095,0.6999974,30.36555,-23.43786,-32.09292,990.3859
4.067511082,-11.13396,-252.8363,60.14341,-1.896375,0.3945594,0.5558755,30.36555,-23.43786,-32.09292,990.3859
4.072429657,2.342991,-245.5484,50.45135,-1.884846,0.1698894,0.3961195,30.36555,-23.43786,-32.09292,990.3859
4.077347755,23.17663,-233.5203,43.25851,-1.837297,-0.02519914,0.2365308,30.36555,-23.43786,-32.09292,990.3859
4.082266331,48.70866,-219.1221,38.13818,-1.780014,-0.2012805,0.1342793,30.36555,-23.43786,-32.09292,990.3859
4.087184906,75.97167,-203.9537,36.98001,-1.758664,-0.2996098,0.05617904,30.36555,-23.43786,-32.09292,990.3859
4.092103004,99.58725,-187.6595,36.55332,-1.786376,-0.2775791,-0.06524193,30.36555,-23.43786,-32.09292,990.3859
4.099480629,120.2354,-162.8923,34.54176,-1.7776,-0.145398,-0.139247,30.36555,-23.43786,-32.09292,990.3859
4.104399204,122.2755,-145.3538,32.04255,-1.814843,-0.08341064,-0.1592885,20.4851,-25.35284,-36.39374,990.3859
4.109317303,115.5989,-128.8226,28.629,-1.871061,-0.004447865,-0.2092187,20.4851,-25.35284,-36.39374,990.3859
4.114235878,100.6382,-112.1136,24.11824,-1.910963,0.03719326,-0.2638781,20.4851,-25.35284,-36.39374,990.3859
4.119154453,81.04099,-96.64897,18.26643,-1.959333,0.08291245,-0.3319323,20.4851,-25.35284,-36.39374,990.3859
4.124072552,59.28003,-79.99926,10.28116,-1.967721,0.08488668,-0.3890933,20.4851,-25.35284,-36.39374,990.3859
4.128991127,39.31188,-63.64581,0.6500632,-1.935357,0.04593374,-0.4551839,20.4851,-25.35284,-36.39374,990.3859
4.133909702,23.36209,-46.16657,-11.05354,-1.884811,0.02337211,-0.502448,20.4851,-25.35284,-36.39374,990.3859
4.138827801,12.35798,-29.04284,-24.03723,-1.823539,0.04195743,-0.5280882,20.4851,-25.35284,-36.39374,990.3885
4.143746376,5.186752,-11.91912,-38.30101,-1.771438,0.07469122,-0.5323217,20.4851,-25.35284,-36.39374,990.3885
4.148664951,1.168394,4.315829,-53.35721,-1.741022,0.1148046,-0.4982688,20.4851,-25.35284,-36.39374,990.3885
4.156042099,-2.355396,25.05391,-74.08235,-1.684316,0.2397657,-0.4248106,12.54154,-27.4665,-35.19955,990.3885
4.160960674,-4.333664,35.8377,-86.39552,-1.66232,0.2872602,-0.3462684,12.54154,-27.4665,-35.19955,990.3885
4.165878773,-6.373754,44.84396,-96.27044,-1.582442,0.2978182,-0.2732697,12.54154,-27.4665,-35.19955,990.3885
4.170797348,-27.14557,44.72545,-97.48956,-0.373322,1.29108,1.456279,12.54154,-27.4665,-35.19955,990.3885
4.175715923,-104.4217,138.58,-123.7008,-2.514585,1.201817,-0.5192164,12.54154,-27.4665,-35.19955,990.3885
4.180634022,-136.8777,133.5437,-145.1574,1.107555,1.099303,-0.25217,12.54154,-27.4665,-35.19955,990.3868
4.185552597,-141.2051,195.5209,-156.861,0.4916579,-0.2046694,0.6122289,12.54154,-27.4665,-35.19955,990.3868
4.190475941,-129.5828,205.1789,-129.3697,-1.110509,-1.264244,0.4875011,12.54154,-27.4665,-35.19955,990.3868
4.195389271,-90.69745,196.2319,-85.66405,0.1019166,-1.205625,1.732595,12.54154,-27.4665,-35.19955,990.3868
4.200307846,-63.43444,193.1508,-38.48388,-0.4113369,-0.7018341,1.465524,12.54154,-27.4665,-35.19955,990.3868
4.205226421,-54.34677,192.0843,-6.116086,0.1436638,-0.1012261,1.717652,12.16307,-28.16899,-36.05286,990.3868
4.210144520,-47.60829,228.4648,9.488726,0.5879548,0.1187135,1.566172,12.16307,-28.16899,-36.05286,990.3868
4.215063095,-51.1939,266.1488,5.95326,0.5379174,0.2240454,1.361665,12.16307,-28.16899,-36.05286,990.3868
4.219981670,-48.16468,301.4036,-7.944774,-0.01376145,-0.4302972,1.167508,12.16307,-28.16899,-36.05286,990.3912
4.227358818,-27.26922,294.7081,-13.79658,-1.943577,-1.0394,0.7161536,12.16307,-28.16899,-36.05286,990.3912
4.232277393,-4.086381,263.364,-16.53961,-2.535262,-0.9503549,0.8365086,12.16307,-28.16899,-36.05286,990.3912
4.237195969,10.87427,227.102,-26.29262,-2.752429,-0.5473237,0.8808306,12.16307,-28.16899,-36.05286,990.3912
4.242114067,23.79484,197.2984,-37.02092,-2.531983,-0.2694087,0.782571,12.16307,-28.16899,-36.05286,990.3912
4.247032642,31.76974,172.5312,-45.73767,-1.965974,-0.03806806,0.7829153,12.16307,-28.16899,-36.05286,990.3912
4.251951218,29.17326,151.7932,-48.29784,-1.379391,0.4967701,1.175909,18.70395,-24.68927,-33.82123,990.3912
4.256869316,13.53257,142.4907,-46.34724,-1.31643,1.047048,0.9920236,18.70395,-24.68927,-33.82123,990.3912
4.261787891,-8.290201,131.1736,-43.11655,-1.056115,1.339318,0.9793511,18.70395,-24.68927,-33.82123,990.3895
4.266706467,-31.78214,127.5592,-37.32571,-0.9888654,1.467113,0.8289821,18.70395,-24.68927,-33.82123,990.3895
4.271624565,-52.18304,122.5229,-38.11814,-0.9410229,1.283999,0.7071611,18.70395,-24.68927,-33.82123,990.3895
4.276543140,-66.03091,115.3534,-44.27472,-0.9692,0.9864044,0.6458986,18.70395,-24.68927,-33.82123,990.3895
4.281461716,-70.29655,105.9917,-56.52694,-1.007656,0.4805191,0.6591265,18.70395,-24.68927,-33.82123,990.3895
4.286379814,-64.42357,95.80037,-66.58472,-1.021155,-0.06277811,0.6505575,18.70395,-24.68927,-33.82123,990.3895
4.293757439,-50.57569,78.32114,-63.35404,-1.007526,-0.2216066,0.6477809,18.70395,-24.68927,-33.82123,990.3895
4.298675537,-45.93913,64.98951,-55.67355,-1.299544,-0.07618024,0.5829811,18.70395,-24.68927,-33.82123,990.3895
4.303594112,-43.58993,51.42089,-51.95522,-0.979698,-0.03034123,0.7090359,26.0196,-23.4434,-30.82538,990.3939
4.308512688,-41.73531,47.74728,-48.48071,-0.6482899,-0.1074971,0.7412284,26.0196,-23.4434,-30.82538,990.3939
4.313430786,-38.7679,45.37722,-44.33568,-0.810685,-0.0949038,0.7988015,26.0196,-23.4434,-30.82538,990.3939
4.318349361,-34.81136,37.25974,-39.52013,-0.9725859,-0.2067176,0.7805225,26.0196,-23.4434,-30.82538,990.3939
4.323267937,-30.79301,30.26805,-36.83805,-0.761253,-0.2251776,0.7728554,26.0196,-23.4434,-30.82538,990.3939
4.328186035,-25.78551,26.29819,-30.31573,-0.9582346,-0.2826151,0.751267,26.0196,-23.4434,-30.82538,990.3939
4.333104611,-20.90166,16.46242,-21.17229,-0.9897584,-0.2453399,0.7512642,26.0196,-23.4434,-30.82538,990.3939
4.338023186,-16.94513,12.49256,-18.85595,-0.6404932,-0.1892988,0.7895228,26.0196,-23.4434,-30.82538,990.3939
4.342941284,-13.54498,11.48528,-14.4671,-0.6640081,-0.09253787,0.7942748,26.0196,-23.4434,-30.82538,990.3922
4.347859860,-11.93763,9.707729,-10.74876,-0.6362184,0.03708172,0.8137398,26.0196,-23.4434,-30.82538,990.3922
4.352778435,-11.44307,8.048683,-9.65155,-0.7219594,-0.03668282,0.7533286,29.30477,-20.6121,-30.34713,990.3922
4.357696533,-8.970231,5.441611,-7.51808,-0.6511645,-0.04640158,0.7849669,29.30477,-20.6121,-30.34713,990.3922
4.362615109,-7.733814,5.500862,-7.335211,-0.6037509,-0.0232632,0.7960014,29.30477,-20.6121,-30.34713,990.3922
4.367533684,-6.8065,5.026849,-5.994173,-0.6160519,-0.02757014,0.785768,29.30477,-20.6121,-30.34713,990.3922
4.372451782,-5.260978,4.730591,-3.434008,-0.6020496,0.03558694,0.8056428,29.30477,-20.6121,-30.34713,990.3922
4.377370358,-4.642769,5.323107,-4.957916,-0.5874493,0.03007022,0.7946644,29.30477,-20.6121,-30.34713,990.3922
4.384747982,-3.406352,5.382359,-2.397752,-0.5924707,0.05004638,0.7934039,29.30477,-20.6121,-30.34713,990.3922
4.389666081,-2.60268,5.619366,-2.58062,-0.6254733,0.1119217,0.8073114,29.30477,-20.6121,-30.34713,990.3922
4.394584656,-1.92265,5.500862,-1.422451,-0.5921712,0.0007718261,0.7942492,29.30477,-20.6121,-30.34713,990.3922
4.399503231,-1.366262,5.323107,0.5891069,-0.6136788,0.02753696,0.7612965,30.72948,-19.52432,-30.31033,990.3922
4.404421330,-1.799008,5.086101,-1.117669,-0.6104367,0.185566,0.7886713,30.72948,-19.52432,-30.31033,990.3922
4.409339905,-1.304441,5.026849,-0.6300189,-0.6158701,0.1162088,0.7913474,30.72948,-19.52432,-30.31033,990.3922
4.414258480,-0.9335158,4.493584,-1.849145,-0.6006705,-0.003769455,0.7723244,30.72948,-19.52432,-30.31033,990.3922
4.419176579,0.3647228,4.849094,0.6500632,-0.5980695,-0.03153015,0.771413,30.72948,-19.52432,-30.31033,990.3922
4.424095154,1.724782,4.612088,1.259626,-0.6169112,0.1057126,0.7783955,30.72948,-19.52432,-30.31033,990.3904
4.429013729,1.353857,4.612088,-0.2033249,-0.5989202,0.07138082,0.7970541,30.72948,-19.52432,-30.31033,990.3904
4.433931828,1.972066,4.789843,-0.1423686,-0.5890384,0.04764934,0.7928133,30.72948,-19.52432,-30.31033,990.3904
4.438850403,2.713917,4.967597,0.9548446,-0.598942,0.05358217,0.7838597,30.72948,-19.52432,-30.31033,990.3904
4.446227550,2.775738,3.96032,1.564407,-0.5927583,0.05879503,0.7689245,30.72948,-19.52432,-30.31033,990.3904
4.451146126,1.786603,3.545558,1.320582,-0.6022517,0.1502072,0.7534829,30.72243,-19.20602,-30.68405,990.3904
4.456064701,0.4883646,2.775287,-0.5081064,-0.603483,0.2254216,0.7733839,30.72243,-19.20602,-30.68405,990.3904
4.460982799,-1.489904,1.590254,-3.068271,-0.6168885,0.2010968,0.7377555,30.72243,-19.20602,-30.68405,990.3904
4.465901375,-2.664501,-0.3057988,-4.348353,-0.5965688,0.08361562,0.7440182,30.72243,-19.20602,-30.68405,990.3948
4.470819950,-4.395485,-1.490832,-3.860703,-0.6223606,0.1578516,0.7524365,30.72243,-19.20602,-30.68405,990.3948
4.475738048,-5.570083,-3.327633,-3.799746,-0.6268657,0.1165649,0.7671723,30.72243,-19.20602,-30.68405,990.3948
4.480656624,-7.548351,-3.920149,-6.237998,-0.5923479,0.09750267,0.7337471,30.72243,-19.20602,-30.68405,990.3948
4.485575199,-7.795635,-5.75695,-3.982615,-0.6167138,0.03879358,0.757798,30.72243,-19.20602,-30.68405,990.3948
4.490493297,-9.464799,-6.46797,-3.73879,-0.6014051,0.1456683,0.7878035,30.72243,-19.20602,-30.68405,990.3948
4.495411873,-9.093873,-7.238241,-4.104527,-0.5876022,0.03566762,0.7822211,30.72243,-19.20602,-30.68405,990.3948
4.500330448,-9.464799,-7.475248,-3.73879,-0.5929493,0.0456824,0.7918113,30.73228,-19.89096,-30.32156,990.3948
4.505248546,-8.537485,-6.46797,-3.068271,-0.5943337,0.01754399,0.7831519,30.73228,-19.89096,-30.32156,990.3948
4.510167122,-8.16656,-6.11246,-2.397752,-0.5863854,0.01978888,0.7972392,30.73228,-19.89096,-30.32156,990.3948
4.515088081,-7.239246,-4.512666,-1.910101,-0.5721683,0.0179222,0.7994903,30.73228,-19.89096,-30.32156,990.3948
4.522462845,-6.621037,-1.668587,-0.4471501,-0.57921,0.04764715,0.7975879,30.73228,-19.89096,-30.32156,990.3948
4.527381420,-6.188292,-0.3650505,0.1624128,-0.5822337,0.0502028,0.7899261,30.73228,-19.89096,-30.32156,990.3948
4.532299995,-6.002829,0.4644725,0.04050024,-0.586729,0.04937859,0.7797404,30.73228,-19.89096,-30.32156,990.3948
4.537218094,-6.126471,0.7607307,0.3452817,-0.589847,0.07043798,0.7736437,30.73228,-19.89096,-30.32156,990.3948
4.542136669,-6.06465,0.6422275,0.3452817,-0.5997545,0.08457528,0.7693229,30.73228,-19.89096,-30.32156,990.3948
4.547055244,-6.682858,0.4644725,-0.08141235,-0.6008969,0.0988648,0.7610508,30.72206,-19.86333,-31.15159,990.393
4.551973343,-7.115605,-0.06879225,-0.6909752,-0.5959817,0.1036835,0.7665059,30.72206,-19.86333,-31.15159,990.393
4.556891918,-7.177425,-0.7205603,-1.361495,-0.6043134,0.09592745,0.7600136,30.72206,-19.86333,-31.15159,990.393
4.561815262,-7.919276,-1.372328,-1.788189,-0.6012438,0.08267581,0.7658755,30.72206,-19.86333,-31.15159,990.393
4.566728592,-8.042918,-1.78709,-1.910101,-0.6020939,0.05397281,0.7615635,30.72206,-19.86333,-31.15159,990.393
4.571647167,-7.424709,-2.201851,-1.544363,-0.6000246,0.03882614,0.7639741,30.72206,-19.86333,-31.15159,990.393
4.576565742,-7.48653,-2.1426,-1.483407,-0.6083546,0.03829976,0.7620834,30.72206,-19.86333,-31.15159,990.393
4.581483841,-7.053784,-2.557361,-1.239582,-0.6043636,0.03432699,0.7677497,30.72206,-19.86333,-31.15159,990.393
4.586402416,-7.177425,-2.49811,-0.9348004,-0.5989068,0.0414602,0.780072,30.72206,-19.86333,-31.15159,990.3914
4.591320991,-7.177425,-2.320355,-0.6300189,-0.5953823,0.0326179,0.7851005,30.72206,-19.86333,-31.15159,990.3914
4.598698139,-6.559216,-1.550083,-0.4471501,-0.6087496,0.06656325,0.7892117,31.0982,-18.85531,-30.28892,990.3914
4.603616714,-6.06465,-1.313077,-0.08141235,-0.6011505,-0.01873872,0.7640797,31.0982,-18.85531,-30.28892,990.3914
4.608534813,-5.508262,-1.43158,0.7719758,-0.5975476,0.02817949,0.7606992,31.0982,-18.85531,-30.28892,990.3914
4.613453865,-4.890053,-1.550083,0.4671943,-0.5960521,0.04983635,0.7769184,31.0982,-18.85531,-30.28892,990.3914
4.618371963,-4.70459,-1.78709,0.4671943,-0.5965824,0.05135766,0.7735727,31.0982,-18.85531,-30.28892,990.3914
4.623290062,-4.271844,-2.024096,0.406238,-0.5931882,0.05240883,0.7711509,31.0982,-18.85531,-30.28892,990.3914
4.628208637,-4.02456,-2.379606,0.2233691,-0.5804154,0.05144928,0.7763562,31.0982,-18.85531,-30.28892,990.3914
4.633127212,-3.653635,-2.379606,0.1014565,-0.5749227,0.05803158,0.7920593,31.0982,-18.85531,-30.28892,990.3914
4.638045311,-3.406352,-1.846342,0.1014565,-0.5723881,0.05547152,0.7997249,31.0982,-18.85531,-30.28892,990.3914
4.642963886,-2.417217,-1.313077,0.04050024,-0.5812801,0.06375958,0.7956939,31.0982,-18.85531,-30.28892,990.3914
4.647882461,-2.231755,-0.8983153,0.04050024,-0.5851091,0.04717011,0.7942223,30.71962,-18.83938,-30.67282,990.3914
4.652805805,-1.551725,-1.016819,-0.08141235,-0.5796534,0.04032239,0.7978423,30.71962,-18.83938,-30.67282,990.3914
4.657718658,-0.871695,-0.4243021,-0.1423686,-0.5786089,0.02429179,0.7948921,30.71962,-18.83938,-30.67282,990.3914
4.662637710,-0.1916652,0.4052209,0.406238,-0.5807335,0.04099141,0.7876764,30.71962,-18.83938,-30.67282,990.3914
4.667555332,-0.1916652,0.8199824,0.2843254,-0.5828682,0.06446046,0.783591,30.71962,-18.83938,-30.67282,990.394
4.674933433,0.1792602,1.234744,-0.02045605,-0.5869777,0.08457244,0.7755299,30.71962,-18.83938,-30.67282,990.394
4.679852009,-0.253486,0.4644725,-0.6300189,-0.5928985,0.08799475,0.7722895,30.71962,-18.83938,-30.67282,990.394
4.684770107,-0.6244114,-0.06879225,-1.361495,-0.5937911,0.08107136,0.7769302,30.71962,-18.83938,-30.67282,990.394
4.689688682,-0.4389487,-0.009540603,-1.910101,-0.5879368,0.09368849,0.7831131,30.71962,-18.83938,-30.67282,990.394
4.694607258,-0.7480532,-0.5428054,-2.275839,-0.581301,0.1197106,0.7770955,30.71962,-18.83938,-30.67282,990.394
4.699528694,-1.366262,-0.9575669,-3.373052,-0.5908729,0.1023448,0.7882701,30.34857,-19.20286,-30.68486,990.394
4.704443932,-1.428083,-1.194574,-4.409309,-0.5721142,0.09301618,0.800441,30.34857,-19.20286,-30.68486,990.394
4.709362507,-0.6862323,-0.602057,-4.287396,-0.5675909,0.08800044,0.8099537,30.34857,-19.20286,-30.68486,990.394
4.714280128,-0.3153069,0.04971104,-4.896959,-0.5621396,0.08694732,0.8166727,30.34857,-19.20286,-30.68486,990.394
4.719199181,-0.253486,0.8792341,-4.896959,-0.5629433,0.08419301,0.8330992,30.34857,-19.20286,-30.68486,990.394
4.724117756,0.4265437,2.360525,-5.079828,-0.5559348,0.04537037,0.8259705,30.34857,-19.20286,-30.68486,990.394
4.729035377,1.415678,3.545558,-4.71409,-0.5627102,0.03842108,0.829202,30.34857,-19.20286,-30.68486,990.394
4.733953953,2.713917,4.789843,-3.860703,-0.5580173,0.01234661,0.8433791,30.34857,-19.20286,-30.68486,990.394
4.738873005,4.32126,6.86365,-2.885402,-0.55976,-0.02327981,0.8437077,30.34857,-19.20286,-30.68486,990.394
4.743790626,6.732275,9.470723,-0.9957568,-0.5668786,-0.0512469,0.8491814,30.34857,-19.20286,-30.68486,990.394
4.751168728,10.81245,12.90732,1.564407,-0.5634862,-0.04151292,0.8518934,31.101,-19.22195,-30.30015,990.3957
4.756086826,12.4198,15.33664,2.783533,-0.5765443,-0.003842861,0.8396133,31.101,-19.22195,-30.30015,990.3957
4.761005402,14.39807,17.17344,3.088315,-0.5502675,-0.01056147,0.8721986,31.101,-19.22195,-30.30015,990.3957
4.765923977,16.12905,19.89901,3.149271,-0.5535377,0.03682755,0.8664619,31.101,-19.22195,-30.30015,990.3957
4.770842552,17.55093,22.38758,2.539708,-0.5708401,0.05728025,0.8599766,31.101,-19.22195,-30.30015,990.3957
4.775760651,19.22009,24.63914,2.17397,-0.5608017,0.04482054,0.8789161,31.101,-19.22195,-30.30015,990.3957
4.780679226,21.13654,27.72023,2.356839,-0.5363083,0.006411131,0.9100144,31.101,-19.22195,-30.30015,990.3957
4.785601139,22.80571,32.10485,3.088315,-0.5303812,-0.03364683,0.9421833,31.101,-19.22195,-30.30015,990.3957
4.790515423,25.64947,37.08199,4.124572,-0.5147772,-0.05171876,0.9769198,31.101,-19.22195,-30.30015,990.3957
4.795434475,28.80233,43.95518,6.197086,-0.4952328,-0.0847564,1.005318,31.09862,-19.51473,-30.69261,990.3957
4.800353050,31.70791,51.42089,7.964818,-0.4875759,-0.04432063,1.063359,31.09862,-19.51473,-30.69261,990.3957
4.805270672,32.88251,60.9604,8.75725,-0.4474137,-0.05514117,1.113178,31.09862,-19.51473,-30.69261,990.3957
4.812648773,35.35535,77.49161,10.6469,-0.4574986,0.03023839,1.184944,31.09862,-19.51473,-30.69261,990.3957
4.817566872,36.4063,90.34922,11.01263,-0.4404807,0.01037516,1.263795,31.09862,-19.51473,-30.69261,990.3957
4.822485447,36.03538,105.9324,11.56124,-0.3965654,-0.03289232,1.277099,31.09862,-19.51473,-30.69261,990.3957
4.827404022,38.87914,121.9896,13.20706,-0.3882856,-0.007174425,1.340004,31.09862,-19.51473,-30.69261,990.3957
4.832322121,39.43552,140.5354,13.32897,-0.3693556,0.03138625,1.39935,31.09862,-19.51473,-30.69261,990.3957
4.837240696,38.19911,161.0364,13.5728,-0.3153326,0.08061923,1.452437,31.09862,-19.51473,-30.69261,990.3957
4.842159271,38.38457,184.6186,13.69471,-0.2769468,0.07859751,1.526344,31.09862,-19.51473,-30.69261,990.3957
4.847079754,35.97356,213.0001,13.38993,-0.2121998,0.170909,1.602088,31.12694,-19.29211,-28.19316,990.3957
4.851995945,31.83156,244.1072,11.50028,-0.1968758,0.3264325,1.612775,31.12694,-19.29211,-28.19316,990.3957
4.856914520,30.03875,276.2809,4.551266,-0.08614291,0.5362783,1.710846,31.12694,-19.29211,-28.19316,990.3957
4.861832142,41.16651,318.4088,-16.05196,0.002244363,0.9263172,1.63086,31.12694,-19.29211,-28.19316,990.3957
4.866750717,45.30851,346.7311,-42.87273,-0.2391942,0.970522,1.474032,31.12694,-19.29211,-28.19316,990.3974
4.871669769,48.8323,368.1209,-68.2915,-0.4208592,0.9610747,1.345583,31.12694,-19.29211,-28.19316,990.3974
4.876587391,48.21409,382.9338,-92.24732,-0.5270782,0.8339437,1.208371,31.12694,-19.29211,-28.19316,990.3974
4.881505966,49.63597,390.3995,-112.3019,-0.71718,0.7027097,1.09405,31.12694,-19.29211,-28.19316,990.3974
4.886424541,43.26842,387.3777,-123.0303,-0.7617298,0.5948916,1.074451,31.12694,-19.29211,-28.19316,990.3974
4.893802166,27.8132,373.1573,-122.6645,-0.948714,0.5023671,0.9521207,34.54388,-21.00621,-19.80111,990.3974
4.898720741,16.25269,359.5294,-118.6414,-1.046724,0.349562,0.9912384,34.54388,-21.00621,-19.80111,990.3974
4.903639317,9.452394,347.2051,-108.8274,-1.399859,0.06439266,0.867494,34.54388,-21.00621,-19.80111,990.3974
4.908557415,11.67795,331.2664,-102.488,-1.688285,0.3749121,0.921573,34.54388,-21.00621,-19.80111,990.3957
4.913475990,14.70717,315.7425,-98.03817,-1.755649,0.2722997,0.8217289,34.54388,-21.00621,-19.80111,990.3957
4.918394566,17.24183,301.8183,-96.94096,-2.118988,0.2134665,0.6917303,34.54388,-21.00621,-19.80111,990.3957
4.923312187,18.54006,283.9836,-100.7203,-2.226152,0.8369286,0.8155327,34.54388,-21.00621,-19.80111,990.3957
4.928231239,-3.28271,262.653,-105.5968,-2.049701,0.8604962,1.020707,34.54388,-21.00621,-19.80111,990.3957
4.933149815,-23.86907,242.5667,-108.096,-1.996595,0.6478457,1.071717,34.54388,-21.00621,-19.80111,990.3957
4.938067436,-37.03692,215.1332,-106.0844,-1.757824,0.5592685,1.330563,34.54388,-21.00621,-19.80111,990.3957
4.942986011,-47.97921,185.5666,-97.8553,-1.345504,0.5529082,1.63092,40.85306,-19.70309,-7.21919,990.3957
4.947904587,-51.50301,168.0874,-79.20267,-0.3031824,0.5176415,1.509562,40.85306,-19.70309,-7.21919,990.3879
4.952822685,-51.50301,168.0281,-72.37557,-0.9697062,0.3537479,1.220398,40.85306,-19.70309,-7.21919,990.3879
4.957741261,-48.41196,142.6092,-59.39188,-1.2644,0.3642101,1.30278,40.85306,-19.70309,-7.21919,990.3879
4.962659836,-44.33178,120.9231,-44.82333,-0.5770638,0.4664873,1.480552,40.85306,-19.70309,-7.21919,990.3879
4.967577934,-40.68435,118.079,-41.40978,-0.2031869,0.6110561,1.335487,40.85306,-19.70309,-7.21919,990.3879
4.974956036,-34.74954,112.2723,-41.16595,-0.2108591,0.3609245,1.197892,40.85306,-19.70309,-7.21919,990.3879
4.979873657,-26.52736,105.2214,-40.55639,-0.3265175,0.3555229,1.170993,40.85306,-19.70309,-7.21919,990.3879
4.984792709,-19.2325,93.13404,-40.49543,-0.3569163,0.3679124,1.120173,40.85306,-19.70309,-7.21919,990.3879
4.989711285,-13.48316,77.2546,-39.58109,-0.3405254,0.3969656,1.113201,40.85306,-19.70309,-7.21919,990.3862
4.994628906,-11.01032,59.95313,-38.97153,-0.3019664,0.4476076,1.135872,43.83669,-17.06421,-0.8676987,990.3862
4.999547482,-10.70122,42.29613,-38.54483,-0.2218407,0.4431803,1.123905,43.83669,-17.06421,-0.8676987,990.3862
5.004466057,-10.9485,24.40214,-37.93527,-0.1524917,0.3967401,1.084461,43.83669,-17.06421,-0.8676987,990.3862
5.009384155,-10.57757,7.21916,-36.65519,-0.09082893,0.3354978,1.050432,43.83669,-17.06421,-0.8676987,990.3862
5.014302731,-8.90841,-9.72681,-34.3998,-0.04589221,0.291652,1.017097,43.83669,-17.06421,-0.8676987,990.3862
5.019226074,-6.868321,-26.02101,-32.20538,-0.002495239,0.2749341,0.9928994,43.83669,-17.06421,-0.8676987,990.3862
5.024139404,-5.446441,-41.78195,-30.25478,0.04871226,0.2708512,0.974869,43.83669,-17.06421,-0.8676987,990.3862
5.029057980,-4.086381,-56.35785,-28.42609,0.08722523,0.257934,0.9537463,43.83669,-17.06421,-0.8676987,990.3905
5.036436081,-2.355396,-76.79967,-25.74401,0.1174414,0.2193533,0.9187594,43.83669,-17.06421,-0.8676987,990.3905
5.041354179,-0.1916652,-89.65728,-24.2201,0.1150913,0.2003219,0.8662164,44.22818,-16.75601,0.8044024,990.3905
5.046272755,2.095708,-102.5149,-23.42767,0.127541,0.1705912,0.8709873,44.22818,-16.75601,0.8044024,990.3905
5.051191330,5.495857,-114.4245,-21.96472,0.1304319,0.140806,0.8481596,44.22818,-16.75601,0.8044024,990.3905
5.056108952,9.328753,-126.0378,-21.05037,0.1407734,0.09977677,0.830251,44.22818,-16.75601,0.8044024,990.3905
5.061027527,13.53257,-136.8216,-19.40456,0.1318005,0.09664796,0.810803,44.22818,-16.75601,0.8044024,990.3905
5.065946579,17.42729,-146.1833,-18.3683,0.1211012,0.08920304,0.8125942,44.22818,-16.75601,0.8044024,990.3905
5.070864201,20.88926,-156.4339,-17.27109,0.1122488,0.09211138,0.8093614,44.22818,-16.75601,0.8044024,990.3889
5.075782776,24.10394,-164.4329,-15.93005,0.08689675,0.08787309,0.8152599,44.22818,-16.75601,0.8044024,990.3889
5.080701351,26.51496,-172.4318,-14.22327,0.05423736,0.07097717,0.8164428,44.22818,-16.75601,0.8044024,990.3889
5.085619450,29.11144,-179.6013,-11.48024,0.02851338,0.06168796,0.8314077,44.22818,-16.75601,0.8044024,990.3889
5.090538025,30.65696,-186.593,-8.1886,0.006493251,0.07212131,0.8367783,44.22818,-16.75601,0.8044024,990.3889
5.095456600,31.52245,-192.2811,-4.104527,-0.02219382,0.06961124,0.852956,44.55286,-16.26711,-2.950606,990.3889
5.100374699,31.39881,-197.6138,0.7719758,-0.05428714,0.06317993,0.8685502,44.55286,-16.26711,-2.950606,990.3889
5.105293274,31.27517,-202.3539,6.806649,-0.08595318,0.05108541,0.8742488,44.55286,-16.26711,-2.950606,990.3889
5.110211849,30.71878,-206.4423,13.1461,-0.1273862,0.02971401,0.8758457,44.55286,-16.26711,-2.950606,990.3871
5.115129948,30.65696,-210.4714,20.64373,-0.1579104,-0.008241078,0.8826479,44.55286,-16.26711,-2.950606,990.3871
5.120048523,30.96606,-213.7895,28.93378,-0.1785676,-0.02891432,0.908859,44.55286,-16.26711,-2.950606,990.3871
5.127425671,31.76974,-218.1149,42.03939,-0.2595778,-0.02903686,0.8769891,44.55286,-16.26711,-2.950606,990.3871
5.132344246,33.06797,-221.4922,50.51231,-0.3009276,-0.04188869,0.8924535,44.55286,-16.26711,-2.950606,990.3871
5.137262821,33.99529,-224.5733,58.92428,-0.3434701,-0.04565842,0.8912252,44.55286,-16.26711,-2.950606,990.3871
5.142180920,34.9226,-227.6544,67.3972,-0.3829015,-0.05841999,0.9027925,44.45729,-15.64959,-10.47348,990.3871
5.147099495,36.52994,-230.2614,76.23586,-0.4199513,-0.08984223,0.8962626,44.45729,-15.64959,-10.47348,990.3871
5.152018070,39.0646,-233.0463,84.70879,-0.4481894,-0.111076,0.8967847,44.45729,-15.64959,-10.47348,990.3837
5.156936169,41.84654,-235.5941,92.93789,-0.4833083,-0.1062688,0.9098509,44.45729,-15.64959,-10.47348,990.3837
5.161854744,44.62848,-237.0161,100.4965,-0.4931585,-0.08983049,0.9128865,44.45729,-15.64959,-10.47348,990.3837
5.166773319,46.23582,-238.0827,107.8112,-0.5229221,-0.06226555,0.9373202,44.45729,-15.64959,-10.47348,990.3837
5.171691895,46.66857,-238.5567,113.6021,-0.5512867,-0.02587752,0.9600832,44.45729,-15.64959,-10.47348,990.3837
5.176609993,45.92672,-238.6159,118.4176,-0.5723132,0.01684076,0.9868732,44.45729,-15.64959,-10.47348,990.3837
5.181528568,44.3812,-237.9641,121.8312,-0.6230739,0.03933218,1.011802,44.45729,-15.64959,-10.47348,990.3837
5.186447144,42.71203,-237.4901,125.4276,-0.6790376,0.02189733,1.030638,44.45729,-15.64959,-10.47348,990.3837
5.191365242,41.29015,-237.1939,129.2069,-0.7407058,0.006023487,1.067536,41.06581,-16.4579,-18.43152,990.3803
5.196283817,40.2392,-237.9049,132.5595,-0.8076157,0.01103042,1.08087,41.06581,-16.4579,-18.43152,990.3803
5.201202393,39.0646,-239.3269,135.5463,-0.8754401,0.03471129,1.112289,41.06581,-16.4579,-18.43152,990.3803
5.206120491,36.90087,-241.4007,138.3503,-0.9355301,0.05960105,1.134943,41.06581,-16.4579,-18.43152,990.3803
5.211039066,34.30439,-244.1263,140.8495,-0.9936174,0.0762224,1.157317,41.06581,-16.4579,-18.43152,990.3803
5.218416214,29.72964,-248.3924,143.2878,-1.086543,0.08264747,1.212665,41.06581,-16.4579,-18.43152,990.3803
5.223334789,26.26768,-252.3623,145.0555,-1.145248,0.09372375,1.218358,41.06581,-16.4579,-18.43152,990.3803
5.228253365,22.37296,-255.9174,145.8479,-1.176969,0.1106657,1.236155,41.06581,-16.4579,-18.43152,990.3803
5.233171463,17.86003,-259.5317,146.8232,-1.207709,0.129539,1.255462,41.06581,-16.4579,-18.43152,990.3803
5.238090038,12.7289,-262.6128,147.189,-1.233172,0.1501046,1.26507,41.06581,-16.4579,-18.43152,990.3803
5.243008614,7.78323,-264.6866,146.8232,-1.261396,0.1423462,1.275249,34.12544,-19.80531,-22.70523,990.3803
5.247926712,3.455767,-265.8124,146.2746,-1.309705,0.1277185,1.27809,34.12544,-19.80531,-22.70523,990.3803
5.252845287,-0.5007696,-266.8197,145.9089,-1.364572,0.1322241,1.271888,34.12544,-19.80531,-22.70523,990.3803
5.257763863,-4.02456,-268.301,144.8727,-1.419049,0.1484955,1.26266,34.12544,-19.80531,-22.70523,990.3803
5.262681961,-7.548351,-269.723,143.2268,-1.468131,0.1696082,1.257913,34.12544,-19.80531,-22.70523,990.3803
5.267600536,-11.75217,-269.96,141.5201,-1.522972,0.1793664,1.257705,34.12544,-19.80531,-22.70523,990.3803
5.272519112,-15.95599,-269.8415,139.1427,-1.579495,0.1933826,1.237741,34.12544,-19.80531,-22.70523,990.3768
5.277437210,-19.78889,-268.8935,136.0949,-1.639944,0.2088347,1.217369,34.12544,-19.80531,-22.70523,990.3768
5.282355785,-22.69447,-267.4122,132.2547,-1.703685,0.2206081,1.157577,34.12544,-19.80531,-22.70523,990.3768
5.289733410,-25.10548,-265.3384,123.5379,-1.817779,0.3745237,0.9847718,28.58161,-22.40764,-29.50918,990.3768
5.294651508,-26.0328,-263.3831,113.9069,-1.872842,0.4680611,0.8605271,28.58161,-22.40764,-29.50918,990.3768
5.299570084,-24.17817,-258.4652,101.8375,-1.908481,0.4241789,0.739,28.58161,-22.40764,-29.50918,990.3768
5.304488659,-16.45056,-252.5993,90.01199,-1.924618,0.3111561,0.5684847,28.58161,-22.40764,-29.50918,990.3768
5.309406757,-1.92265,-243.593,78.91795,-1.884189,0.1440153,0.3977122,28.58161,-22.40764,-29.50918,990.3768
5.314325333,18.97281,-232.8685,69.28685,-1.824834,-0.02891762,0.2586439,28.58161,-22.40764,-29.50918,990.3792
5.319243908,44.75212,-219.7739,61.78923,-1.774025,-0.1228848,0.1440267,28.58161,-22.40764,-29.50918,990.3792
5.324162006,71.33511,-205.1387,54.65734,-1.725988,-0.1733125,0.07306968,28.58161,-22.40764,-29.50918,990.3792
5.329080582,94.27065,-188.9038,48.62267,-1.70956,-0.173765,0.00106121,28.58161,-22.40764,-29.50918,990.3792
5.333999157,112.0751,-172.2541,42.1613,-1.736972,-0.1749513,-0.05264621,28.58161,-22.40764,-29.50918,990.3792
5.338917255,123.7592,-156.6116,36.91906,-1.781918,-0.1773988,-0.09945268,19.81251,-24.30449,-34.6376,990.3792
5.343835831,128.0249,-141.9172,32.83499,-1.835223,-0.151869,-0.1336407,19.81251,-24.30449,-34.6376,990.3792
5.348754406,123.6356,-128.0524,28.26326,-1.875186,-0.06671395,-0.1679686,19.81251,-24.30449,-34.6376,990.3792
5.353672505,111.395,-114.4245,23.7525,-1.92236,-0.004046529,-0.2029584,19.81251,-24.30449,-34.6376,990.3757
5.358591080,93.09606,-100.6188,17.23018,-1.929265,0.08901999,-0.2533266,19.81251,-24.30449,-34.6376,990.3757
5.363509655,71.21146,-85.62817,8.818206,-1.915723,0.1400416,-0.2887025,19.81251,-24.30449,-34.6376,990.3757
5.368427754,49.69779,-70.04498,-1.60532,-1.886121,0.1484459,-0.358593,19.81251,-24.30449,-34.6376,990.3757
5.373346329,30.4715,-53.45452,-13.67467,-1.853405,0.1372439,-0.4218547,19.81251,-24.30449,-34.6376,990.3757
5.380723953,9.761498,-28.03557,-32.57111,-1.775125,0.1344947,-0.4721098,19.81251,-24.30449,-34.6376,990.3757
5.385642052,0.6738273,-11.56361,-44.88428,-1.750861,0.1500255,-0.4824927,19.81251,-24.30449,-34.6376,990.3757
5.390560627,-4.766411,3.664061,-56.28311,-1.69977,0.1712609,-0.4463016,12.55165,-26.77573,-33.90011,990.3723
5.395478726,-8.970231,18.35847,-66.09708,-1.652851,0.2262289,-0.4162777,12.55165,-26.77573,-33.90011,990.3723
5.400397301,-12.92677,31.51233,-74.08235,-1.598069,0.2556612,-0.3473233,12.55165,-26.77573,-33.90011,990.3723
5.405315876,-17.00695,42.59239,-79.14172,-1.539851,0.2870288,-0.2759073,12.55165,-26.77573,-33.90011,990.3723
5.410234451,-21.33441,52.25041,-81.70189,-1.473288,0.305393,-0.2093465,12.55165,-26.77573,-33.90011,990.3723
5.415152550,-25.72369,60.90115,-80.66563,-1.390704,0.2860593,-0.1276177,12.55165,-26.77573,-33.90011,990.3723
5.420071125,-30.05116,67.8336,-75.85008,-1.322424,0.2649016,-0.059425,12.55165,-26.77573,-33.90011,990.3723
5.424989700,-74.93312,67.12257,-67.86481,0.9160582,2.110039,3.337379,12.55165,-26.77573,-33.90011,990.3723
5.429907799,-115.6731,164.71,-85.90787,-1.442328,0.2756223,-1.024797,12.55165,-26.77573,-33.90011,990.3723
5.434826374,-120.8042,129.5738,-81.8238,1.918994,0.9529371,1.485374,12.55165,-26.77573,-33.90011,990.375
5.439744949,-118.8878,171.5832,-76.82539,-0.2983221,-0.3830518,0.7503992,12.56801,-28.91449,-33.96566,990.375
5.444663048,-102.3198,168.6799,-49.76079,0.7539201,-0.4064237,1.818416,12.56801,-28.91449,-33.96566,990.375
5.449581623,-93.66486,208.6747,-29.76713,0.9431714,0.1202282,1.731786,12.56801,-28.91449,-33.96566,990.375
5.454500198,-84.88628,240.1374,-14.95475,1.122457,-0.265794,1.776687,12.56801,-28.91449,-33.96566,990.375
5.461877346,-54.90315,304.8401,17.23018,0.2605647,-0.8653747,1.350376,12.56801,-28.91449,-33.96566,990.375
5.466795921,-40.12796,316.6905,26.80031,-0.8087847,-1.02214,1.036101,12.56801,-28.91449,-33.96566,990.375
5.471714020,-26.52736,314.0242,28.81187,-2.005108,-0.9181377,0.8006598,12.56801,-28.91449,-33.96566,990.3776
5.476632595,-8.537485,286.4721,13.63375,-2.606653,-0.7533726,0.8579763,12.56801,-28.91449,-33.96566,990.3776
5.481551170,9.699677,254.417,-13.36988,-2.718587,-0.7891718,0.9451433,12.56801,-28.91449,-33.96566,990.3776
5.486469269,32.57341,220.4658,-33.54642,-2.463994,-0.9836444,0.9028313,17.28438,-26.44924,-33.87864,990.3776
5.491387844,49.01777,186.9294,-45.79863,-2.211909,-0.5151768,0.9055863,17.28438,-26.44924,-33.87864,990.3776
5.496306419,63.66932,159.6736,-51.77235,-1.875399,0.2286763,0.8543295,17.28438,-26.44924,-33.87864,990.3776
5.501224041,57.91997,148.0011,-50.18748,-1.407976,0.8617252,0.8698193,17.28438,-26.44924,-33.87864,990.3776
5.506143093,35.84991,140.8316,-45.43289,-0.9244335,1.293537,1.064199,17.28438,-26.44924,-33.87864,990.3776
