Time (s),Gyroscope X (deg/s),Gyroscope Y (deg/s),Gyroscope Z (deg/s),Accelerometer X (g),Accelerometer Y (g),Accelerometer Z (g),Magnetometer X (uT),Magnetometer Y (uT),Magnetometer Z (uT),Barometer (hPa)
0.000000000,-0.03961816,0.03114461,-0.1611231,-0.5601872,0.3048292,0.746928,24.58071,-25.40204,-37.79139,994.939
0.002460003,0.02219578,0.2088339,-0.1001354,-0.5650506,0.3032864,0.7488606,24.58071,-25.40204,-37.79139,994.939
0.004919529,0.02218882,0.09030223,0.0217704,-0.5616359,0.3023698,0.7473465,24.57521,-25.38716,-38.23833,994.939
0.007378578,0.02218186,-0.02819224,0.02176357,-0.5616345,0.3004383,0.7463135,24.57521,-25.38716,-38.23833,994.939
0.009838581,-0.1632295,-0.02818343,-0.0391804,-0.5621198,0.295605,0.7437348,24.57521,-25.38716,-38.23833,994.939
0.012298107,0.0222262,0.09029149,0.02176906,-0.5640715,0.2989539,0.746286,24.57521,-25.38716,-38.23833,994.939
0.017217159,-0.1631727,0.09025341,-0.1000997,-0.5683789,0.2963228,0.754491,24.57521,-25.38716,-38.23833,994.939
0.019676685,-0.2249229,-0.1467071,-0.2219426,-0.5630807,0.300867,0.7487668,24.57521,-25.38716,-38.23833,994.939
0.022135735,-0.1630508,0.09027115,0.02187571,-0.5611009,0.3008394,0.7511774,24.57521,-25.38716,-38.23833,994.939
0.024596691,-0.1011982,-0.1466893,0.08280598,-0.5640742,0.2994413,0.7463016,24.57521,-25.38716,-38.23833,994.9434
0.027055264,-0.1629678,0.0310559,-0.1000314,-0.5660641,0.2970772,0.7413868,24.57521,-25.38716,-38.23833,994.9434
0.029515266,0.08428928,0.03104618,0.08281142,-0.5621797,0.3029525,0.7420288,24.57521,-25.38716,-38.23833,994.9434
0.031974316,0.08426281,0.03103646,-0.03908887,-0.5606719,0.3024058,0.7458832,24.57521,-25.38716,-38.23833,994.9434
0.034433842,-0.1629695,0.03102674,0.02186056,-0.5620964,0.2989353,0.7482113,24.57521,-25.38716,-38.23833,994.9434
0.036893845,-0.2247198,0.03101702,0.08279084,-0.5597134,0.3000411,0.7424007,24.57521,-25.38716,-38.23833,994.9434
0.039352894,-0.1628477,-0.0874588,-0.1000466,-0.5620894,0.2960289,0.7471469,24.57521,-25.38716,-38.23833,994.9434
0.041812420,-0.03919361,0.2087339,-0.039078,-0.5659782,0.2959482,0.749604,24.57521,-25.38716,-38.23833,994.9434
0.044272423,0.08442164,0.03096921,0.02187143,-0.5621254,0.2999555,0.7458165,24.57521,-25.38716,-38.23833,994.9434
0.046734810,-0.1010093,-0.1467396,0.02186457,-0.5626308,0.2994999,0.7438639,24.57521,-25.38716,-38.23833,994.9434
0.049193859,-0.0391761,0.0310056,0.02185771,-0.5651064,0.2990538,0.7404712,24.57521,-25.38716,-38.23833,994.9434
0.051651001,-0.03916378,-0.02823711,0.08278799,-0.5615959,0.2993999,0.7496787,24.57521,-25.38716,-38.23833,994.9434
0.054110050,-0.3481588,0.03100481,-0.0391123,-0.5620747,0.2984116,0.7501364,25.32853,-26.12678,-38.25919,994.9434
0.056570053,0.0227594,0.03099509,-0.1000371,-0.5645491,0.2994097,0.7477611,25.32853,-26.12678,-38.25919,994.9434
0.059029579,0.02275227,-0.08748073,0.02186858,-0.5635655,0.2984437,0.747722,25.32853,-26.12678,-38.25919,994.9434
0.063948631,-0.1008455,0.09025465,-0.03904402,-0.5630807,0.300867,0.7487668,25.32853,-26.12678,-38.25919,994.9434
0.066408157,-0.03901238,-0.1467058,0.08284252,-0.5640419,0.3003436,0.7502145,25.32853,-26.12678,-38.25919,994.9434
0.068867683,0.1464043,-0.02819371,0.02187934,-0.5626432,0.3033811,0.7449596,25.32853,-26.12678,-38.25919,994.9434
0.071327686,-0.1008475,-0.0281849,0.08280962,-0.56013,0.2979691,0.7486497,25.32853,-26.12678,-38.25919,994.9434
0.073786736,-0.03901438,0.09029002,0.0827836,-0.559219,0.3024463,0.7444159,25.32853,-26.12678,-38.25919,994.9434
0.076246738,0.02279932,-0.02820445,0.02182045,-0.5635737,0.2999059,0.747769,25.32853,-26.12678,-38.25919,994.9434
0.078706265,-0.03900931,-0.02819564,0.02181359,-0.5645329,0.2998608,0.7497176,25.32853,-26.12678,-38.25919,994.9434
0.081165314,-0.1626,0.03104629,-0.0391304,-0.5626138,0.2989853,0.7453039,25.32853,-26.12678,-38.25919,994.9434
0.083625317,-0.2243503,0.09026957,-0.03911811,-0.5645456,0.2979564,0.7472289,25.32853,-26.12678,-38.25919,994.9434
0.086084843,-0.1006769,-0.02822491,-0.03910581,-0.5601021,0.2955048,0.7500271,25.32853,-26.12678,-38.25919,994.9434
0.088543892,-0.1624468,-0.02821609,0.02184362,-0.5660461,0.3013823,0.7458944,25.32853,-26.12678,-38.25919,994.9434
0.091003895,-0.1005943,-0.02820728,-0.03910038,-0.5620381,0.2968949,0.7530007,25.32853,-26.12678,-38.25919,994.9434
0.093463421,-0.1005627,-0.02819846,0.02184905,-0.5635772,0.3013591,0.7483011,25.32853,-26.12678,-38.25919,994.9434
0.098382473,-0.1004995,-0.2058613,-0.1000581,-0.5626104,0.2975321,0.7447718,25.32853,-26.12678,-38.25919,994.9434
0.100841999,-0.03866642,0.09036857,-0.1000267,-0.5640519,0.2979518,0.7477102,25.32853,-26.12678,-38.25919,994.9434
0.103302479,-0.03865427,0.2088062,0.08281618,-0.5586954,0.3004557,0.7467755,25.33123,-25.77502,-37.80101,994.9434
0.105761051,0.02315937,0.2087407,0.02185303,-0.5611609,0.2990258,0.7438366,25.33123,-25.77502,-37.80101,994.9434
0.108220577,-0.03864938,0.09020899,-0.1000281,-0.5660372,0.2989543,0.745331,25.33123,-25.77502,-37.80101,994.9434
0.110680580,-0.1004387,-0.08751848,-0.09999671,-0.5650466,0.3042431,0.7498623,25.33123,-25.77502,-37.80101,994.9434
0.113139629,-0.1004072,0.03097509,-0.09996529,-0.5630695,0.2955417,0.7466539,25.33123,-25.77502,-37.80101,994.9434
0.115599155,-0.03857415,0.03096537,-0.09993389,-0.5610763,0.2964526,0.7510365,25.33123,-25.77502,-37.80101,994.9434
0.118059158,-0.1003635,0.1494218,0.02197177,-0.5582504,0.3024733,0.7434378,25.33123,-25.77502,-37.80101,994.9434
0.120518208,0.02327097,0.09014175,0.02196488,-0.5674286,0.2987959,0.7531059,25.33123,-25.77502,-37.80101,994.9434
0.122977734,-0.1003393,0.2085795,0.02195799,-0.5644596,0.2934518,0.7533957,25.33123,-25.77502,-37.80101,994.9434
0.125437737,0.02329521,0.149281,0.0219511,-0.5598021,0.3050332,0.7362496,25.33123,-25.77502,-37.80101,994.9434
0.130356789,-0.1620461,-0.383817,0.02195648,-0.5606219,0.3018277,0.7507195,25.33123,-25.77502,-37.80101,994.9434
0.132816315,-0.03839226,0.09016774,0.1438239,-0.5606834,0.3019456,0.7444119,25.33123,-25.77502,-37.80101,994.9434
0.135275364,-0.1001817,0.2678385,0.1437787,-0.5640066,0.2973828,0.7520615,25.33123,-25.77502,-37.80101,994.9434
0.137735367,0.08525423,-0.02841081,0.02185922,-0.56308,0.2999013,0.7482504,25.33123,-25.77502,-37.80101,994.9434
0.140194893,0.08522747,-0.08763488,-0.1609591,-0.5616676,0.3005017,0.7429171,25.33123,-25.77502,-37.80101,994.9434
0.142653942,-0.1620052,0.09009168,0.02190291,-0.5610921,0.301787,0.7526643,25.33123,-25.77502,-37.80101,994.9434
0.145113945,-0.2237557,0.1492964,0.02189602,-0.5640526,0.2989176,0.7482268,25.33123,-25.77502,-37.80101,994.9434
0.147573471,-0.03828101,0.09001653,-0.1609223,-0.5650542,0.2955784,0.7437581,25.33123,-25.77502,-37.80101,994.9434
0.150033474,-0.03826899,-0.1469438,-0.03899743,-0.5635628,0.2979562,0.7477064,25.33123,-25.77502,-37.80101,994.9434
0.152492523,-0.03825696,0.1492675,-0.09992233,-0.5610626,0.2940156,0.7509583,25.33123,-25.77502,-37.80101,994.9434
0.154952049,-0.1000464,0.1492206,-0.0389538,-0.5654696,0.2949505,0.7510244,25.69958,-25.76331,-38.24714,994.9434
0.157412052,0.08538942,-0.08775841,0.02199557,-0.5660182,0.298918,0.7472718,25.69958,-25.76331,-38.24714,994.9434
0.159871101,0.0853626,-0.02849783,-0.03894848,-0.5631441,0.3005066,0.7419583,25.69958,-25.76331,-38.24714,994.9434
0.162330627,-0.03826716,-0.1469549,0.1438752,-0.5635031,0.2939843,0.7514628,25.69958,-25.76331,-38.24714,994.9434
0.164790630,0.0235463,-0.02844268,0.08289284,-0.5611507,0.2980419,0.7442906,25.69958,-25.76331,-38.24714,994.9434
0.167249680,-0.03826256,0.03079924,-0.03900748,-0.5626248,0.3009349,0.7453665,25.69958,-25.76331,-38.24714,994.9434
0.169709206,0.0853524,0.1492556,-0.03899522,-0.562112,0.300894,0.7477887,25.69958,-25.76331,-38.24714,994.9434
0.172169209,0.1471271,0.03074273,-0.1608573,-0.5645593,0.3003936,0.7473071,25.69958,-25.76331,-38.24714,994.9434
0.174628258,0.1470808,0.03073313,0.08294184,-0.563065,0.2989083,0.7491894,25.69958,-25.76331,-38.24714,994.9434
0.179547787,-0.03833832,-0.08784531,-0.03896543,-0.5586628,0.2979823,0.7486381,25.69958,-25.76331,-38.24714,994.9434
0.182007313,-0.03832629,-0.2062837,-0.03895319,-0.562582,0.2974777,0.747683,25.69958,-25.76331,-38.24714,994.9434
0.184466839,-0.03831426,-0.08775287,0.08293332,-0.5636725,0.3025063,0.7391136,25.69958,-25.76331,-38.24714,994.9434
0.186926365,0.02349926,0.1492068,0.08290728,-0.5611496,0.3028616,0.7473583,25.69958,-25.76331,-38.24714,994.946
0.189385891,0.02349189,0.03069391,0.08288123,-0.5660365,0.2979885,0.7448145,25.69958,-25.76331,-38.24714,994.946
0.191845894,0.02348452,-0.1470148,0.08285519,-0.5640857,0.2989811,0.7448304,25.69958,-25.76331,-38.24714,994.946
0.194304943,0.02347715,-0.1469686,-0.09998226,-0.562642,0.295664,0.7403424,25.69958,-25.76331,-38.24714,994.946
0.196764469,-0.03833172,0.09000975,0.08286057,-0.5650196,0.2935834,0.7461215,25.69958,-25.76331,-38.24714,994.946
0.199224472,0.1470847,-0.08771761,0.08283453,-0.5659948,0.3022483,0.7517482,25.69958,-25.76331,-38.24714,994.946
0.201683521,-0.1001673,0.03077596,0.1437456,-0.5640846,0.3038009,0.747898,25.69958,-25.76331,-38.24714,994.946
0.204143524,-0.03833443,0.03076624,0.02182621,-0.5562758,0.3000449,0.7438292,24.57521,-25.38716,-38.23833,994.946
0.206603050,-0.0383224,0.08998963,-0.2219292,-0.563581,0.2970268,0.745249,24.57521,-25.38716,-38.23833,994.946
0.211522102,0.0234449,-0.0877288,-0.09991553,-0.5665392,0.3004212,0.7448967,24.57521,-25.38716,-38.23833,994.946
0.213981628,-0.03836397,-0.02846822,0.08292728,-0.5640898,0.3014,0.7458789,24.57521,-25.38716,-38.23833,994.946
0.216440678,-0.2855578,0.2084728,-0.03897307,-0.5620299,0.2954327,0.7529538,24.57521,-25.38716,-38.23833,994.946
0.218900681,0.02353929,0.03070827,-0.1608351,-0.5625957,0.2999147,0.7477612,24.57521,-25.38716,-38.23833,994.946
0.221360207,-0.03826958,0.08993166,0.08296399,-0.5606041,0.2969717,0.7495927,24.57521,-25.38716,-38.23833,994.946
0.223819256,0.08534538,0.03067041,0.02200078,-0.5674995,0.2989319,0.7458278,24.57521,-25.38716,-38.23833,994.946
0.226279259,0.08531856,0.0898938,0.082931,-0.5635053,0.2968816,0.7530123,24.57521,-25.38716,-38.23833,994.946
0.228738785,-0.0383112,0.08986554,0.1438421,-0.5601621,0.3028523,0.748321,24.57521,-25.38716,-38.23833,994.9443
0.231198788,0.02350232,0.03060429,0.08285975,-0.5621538,0.3000099,0.7429053,24.57521,-25.38716,-38.23833,994.9443
0.233657837,0.02349495,0.03059469,-0.03904056,-0.5621118,0.2975184,0.7457383,24.57521,-25.38716,-38.23833,994.9443
0.236117363,0.02348758,0.03058508,0.02190884,-0.559181,0.2989981,0.7462472,24.57521,-25.38716,-38.23833,994.9443
0.238577366,-0.03832128,0.08980847,0.08283909,-0.5600991,0.3008029,0.7535957,24.57521,-25.38716,-38.23833,994.9443
0.241036415,0.02349224,0.2082463,0.08281308,-0.5620909,0.2979605,0.74818,24.57521,-25.38716,-38.23833,994.9443
0.243495941,-0.1001181,0.08971489,0.08278706,-0.5606157,0.2998871,0.7501718,24.57521,-25.38716,-38.23833,994.9443
0.245955944,0.02351635,0.03045365,0.08276105,-0.5675132,0.301369,0.7459061,24.57521,-25.38716,-38.23833,994.9443
0.248418331,-0.03829251,0.1489101,0.0217979,-0.5606528,0.2989939,0.7457736,24.57521,-25.38716,-38.23833,994.9443
0.253334522,0.02353304,-0.08813418,0.1436585,-0.5655212,0.3008358,0.7492714,25.32292,-25.39349,-38.23671,994.9443
0.255793572,0.0853271,-0.08810649,0.0826762,-0.563554,0.2989039,0.7491933,25.32292,-25.39349,-38.23671,994.9443
0.258253574,-0.03830265,0.08962031,0.1435874,-0.5625753,0.2979469,0.7486691,25.32292,-25.39349,-38.23671,994.9443
0.260713100,-0.223695,-0.02887394,0.08260514,-0.5582111,0.3004692,0.7462865,25.32292,-25.39349,-38.23671,994.9443
0.263172150,-0.03822035,0.03036821,0.08257918,-0.5626349,0.3019188,0.7449126,25.32292,-25.39349,-38.23671,994.9443
0.265632153,-0.1618112,0.03035871,0.08255322,-0.5631652,0.3034402,0.741567,25.32292,-25.39349,-38.23671,994.9443
0.268091679,0.023644,0.2080482,0.08252729,-0.5645466,0.3022979,0.7497958,25.32292,-25.39349,-38.23671,994.9425
0.270550728,-0.03816493,0.2672159,0.1434385,-0.5630906,0.2984753,0.7462626,25.32292,-25.39349,-38.23671,994.9425
0.273010731,0.08545003,-0.02903318,0.08245629,-0.5616556,0.3033718,0.7459222,25.32292,-25.39349,-38.23671,994.9425
0.275470257,-0.03817973,-0.1474901,0.08243039,-0.5590899,0.3002699,0.7564835,25.32292,-25.39349,-38.23671,994.9425
0.277929306,0.08543523,-0.1474438,-0.03946978,-0.5615695,0.2988671,0.7520891,25.32292,-25.39349,-38.23671,994.9425
0.280389309,-0.09999602,-0.02893147,0.0824169,-0.56273,0.2996904,0.7336746,25.32292,-25.39349,-38.23671,994.9425
0.282848835,-0.0999646,0.08954368,0.08239101,-0.5611419,0.2989895,0.7457775,25.32292,-25.39349,-38.23671,994.9425
0.287767887,0.02354577,0.2079535,0.08233923,-0.560625,0.2965296,0.747151,25.32292,-25.39349,-38.23671,994.9425
0.290227413,-0.03826309,0.08942208,-0.100498,-0.5606339,0.2989576,0.7477145,25.32292,-25.39349,-38.23671,994.9425
0.292687416,-0.03825106,0.03016094,-0.2223407,-0.5621483,0.299035,0.742874,25.32292,-25.39349,-38.23671,994.9425
0.295146465,-0.1000405,0.08938444,0.08241481,-0.5636364,0.2985797,0.740444,25.32292,-25.39349,-38.23671,994.9425
0.297605991,-0.1000091,-0.08834269,-0.1004225,-0.5615785,0.3012952,0.7526525,25.32292,-25.39349,-38.23671,994.9425
0.300065994,0.08542674,-0.08831488,-0.0394538,-0.5630538,0.3027442,0.7527111,25.32292,-25.39349,-38.23671,994.9425
0.302525043,0.02359842,-0.08828709,0.08243289,-0.5610932,0.2969673,0.7495966,24.95457,-25.40521,-37.79058,994.9425
0.304985046,0.02359099,-0.02902628,0.08240699,-0.5621011,0.2989444,0.7477261,24.95457,-25.40521,-37.79058,994.9425
0.307444572,-0.1000194,-0.02901713,0.08238109,-0.5630543,0.3003343,0.7511772,24.95457,-25.40521,-37.79058,994.9425
0.309904098,-0.2853924,0.1486911,-0.03951908,-0.5625706,0.2979379,0.7491543,24.95457,-25.40521,-37.79058,994.9425
0.312363624,-0.03809683,-0.08828765,-0.1004438,-0.561614,0.2984704,0.7472213,24.95457,-25.40521,-37.79058,994.9425
0.314823150,-0.03808486,0.03020615,-0.1613494,-0.5605859,0.2979012,0.75205,24.95457,-25.40521,-37.79058,994.9425
0.317282677,-0.2234773,0.2078958,-0.1003616,-0.5610559,0.2944848,0.7519444,24.95457,-25.40521,-37.79058,994.9425
0.319742679,-0.1616057,0.08936444,-0.0393929,-0.5655143,0.2979295,0.7482071,24.95457,-25.40521,-37.79058,994.9425
0.322201729,0.1474524,0.08933641,0.02155662,-0.5655021,0.2974239,0.7491618,24.95457,-25.40521,-37.79058,994.9425
0.327121258,-0.09984609,-0.08836292,0.1433982,-0.5621063,0.2965435,0.745707,24.95457,-25.40521,-37.79058,994.9425
0.329580307,-0.09981473,-0.2068012,-0.1613325,-0.5625598,0.2993639,0.751142,24.95457,-25.40521,-37.79058,994.9425
0.332040310,-0.09978336,0.08942886,-0.1612819,-0.5611171,0.3003883,0.7492208,24.95457,-25.40521,-37.79058,994.9425
0.334499836,0.1474539,0.3263329,-0.1612312,-0.5621024,0.2975003,0.7467087,24.95457,-25.40521,-37.79058,994.9425
0.336958885,0.332812,-0.02916778,0.02163088,-0.5630222,0.295451,0.7515059,24.95457,-25.40521,-37.79058,994.9425
0.339418888,0.0855015,-0.1476246,-0.03931306,-0.5679312,0.2978529,0.7511377,24.95457,-25.40521,-37.79058,994.9425
0.341883659,0.02367318,0.08935393,0.02163643,-0.5621167,0.3009031,0.7473034,24.95457,-25.40521,-37.79058,994.9425
0.344337463,0.08546718,-0.0291402,0.08256677,-0.5640984,0.2970768,0.7423416,24.95457,-25.40521,-37.79058,994.9425
0.346797466,-0.03816263,-0.08836404,0.08254084,-0.5626218,0.2970719,0.7433005,24.95457,-25.40521,-37.79058,994.9425
0.349256992,-0.03815066,-0.08833624,0.08251491,-0.5606759,0.3014491,0.7448815,24.95457,-25.40521,-37.79058,994.9409
0.351716041,-0.03813869,0.08939055,0.2043633,-0.5616248,0.2970445,0.7452335,24.58071,-25.40204,-37.79139,994.9409
0.354176044,-0.09992816,-0.02910359,0.204299,-0.5655623,0.2989859,0.7438715,24.58071,-25.40204,-37.79139,994.9409
0.359095573,0.02365991,-0.2067285,0.08231558,-0.5611079,0.2945846,0.7466071,24.58071,-25.40204,-37.79139,994.9409
0.361554623,-0.3471563,-0.1474306,0.02135257,-0.5610741,0.2935553,0.749487,24.58071,-25.40204,-37.79139,994.9409
0.364014149,-0.09984143,0.03031486,-0.03959128,-0.5630697,0.2989174,0.7487043,24.58071,-25.40204,-37.79139,994.9409
0.366474628,0.08559436,-0.02892774,0.1432326,-0.566963,0.29547,0.7486256,24.58071,-25.40204,-37.79139,994.9409
0.368933201,0.08556747,-0.0289187,0.08225044,-0.5674863,0.3032462,0.7498503,24.58071,-25.40204,-37.79139,994.9409
0.371392727,0.02373909,0.1487895,-0.161524,-0.5611785,0.3005062,0.7429132,24.58071,-25.40204,-37.79139,994.9409
0.373852730,0.0855331,0.03027667,-0.1005361,-0.5626255,0.3019007,0.745883,24.58071,-25.40204,-37.79139,994.9409
0.376311779,-0.1616996,0.03026717,-0.03956736,-0.5630881,0.3013636,0.7482973,24.58071,-25.40204,-37.79139,994.9409
0.378771305,-0.03804589,-0.08820842,0.02138222,-0.5625454,0.295961,0.7505472,24.58071,-25.40204,-37.79139,994.9409
0.381231308,0.02376751,0.03028537,0.1432498,-0.5645414,0.2955375,0.7461803,24.58071,-25.40204,-37.79139,994.9409
0.383690357,-0.03804141,-0.02895712,0.1432048,-0.5630528,0.2984028,0.7501442,24.58071,-25.40204,-37.79139,994.9409
0.386150360,-0.09983094,-0.02894808,0.08222266,-0.5655321,0.3027855,0.749334,24.58071,-25.40204,-37.79139,994.9409
0.388609886,0.08560485,0.08952707,-0.2224889,-0.561671,0.3019549,0.7434493,24.58071,-25.40204,-37.79139,994.9409
0.391068935,-0.03802496,0.03026593,0.02132958,-0.5595631,0.2949311,0.7548596,24.58071,-25.40204,-37.79139,994.939
0.393528938,0.02378844,-0.08820967,0.08226003,-0.5649924,0.3012461,0.75365,24.58071,-25.40204,-37.79139,994.939
0.395988464,-0.09982198,-0.08818198,-0.1005773,-0.5630577,0.3017874,0.7517093,24.58071,-25.40204,-37.79139,994.939
0.398447513,-0.1615921,0.1487778,-0.1614828,-0.5615862,0.2960061,0.7485987,24.58071,-25.40204,-37.79139,994.939
0.403367042,0.02389444,0.148703,0.08232895,-0.5639643,0.2915156,0.752844,25.32292,-25.39349,-38.23671,994.939
0.405827045,-0.223319,-0.08827589,-0.0395712,-0.5659899,0.2988636,0.750183,25.32292,-25.39349,-38.23671,994.939
0.408286095,-0.03784438,0.0302179,0.02137838,-0.5597186,0.2976403,0.7403817,25.32292,-25.39349,-38.23671,994.939
0.410745621,0.02396897,0.0894414,0.2041831,-0.5615651,0.2930726,0.74899,25.32292,-25.39349,-38.23671,994.939
0.413205623,-0.09964151,0.03018027,-0.03962965,-0.5640917,0.2975461,0.7433278,25.32292,-25.39349,-38.23671,994.939
0.415664673,-0.0996102,0.03017077,-0.1005543,-0.5611129,0.2979693,0.7481723,25.32292,-25.39349,-38.23671,994.939
0.418124199,0.08582553,-0.02907172,-0.03958561,-0.5645775,0.2994641,0.7448499,25.32292,-25.39349,-38.23671,994.939
0.420584202,-0.03780435,0.03017043,-0.1005103,-0.5625807,0.2989218,0.7487004,25.32292,-25.39349,-38.23671,994.939
0.423043251,0.08581049,0.03016094,0.0823327,-0.559666,0.2999504,0.7472528,25.32292,-25.39349,-38.23671,994.939
0.425502777,0.147585,0.03015145,0.143244,-0.5630549,0.2979244,0.7496433,25.32292,-25.39349,-38.23671,994.939
0.427962780,0.08573715,0.08937495,0.143199,-0.5616208,0.2980011,0.7462353,25.32292,-25.39349,-38.23671,994.939
0.430422306,-0.03789272,0.03011381,0.0212797,-0.5611196,0.2975,0.7471861,25.32292,-25.39349,-38.23671,994.9414
0.432881832,0.1475236,-0.1475948,0.02127302,-0.563633,0.2971265,0.7399118,25.32292,-25.39349,-38.23671,994.9414
0.435341358,0.08567578,0.08938365,-0.03967081,-0.5616317,0.2999508,0.7462979,25.32292,-25.39349,-38.23671,994.9414
0.437800884,-0.0379541,0.03012252,-0.1005955,-0.5640446,0.300831,0.7502302,25.32292,-25.39349,-38.23671,994.9414
0.440260887,-0.09974362,-0.1475861,-0.03962674,-0.5606501,0.2985065,0.7457579,25.32292,-25.39349,-38.23671,994.9414
0.445179462,-0.03787952,-0.2067449,0.08227242,-0.5601695,0.3033488,0.7478514,25.32292,-25.39349,-38.23671,994.9414
0.447639465,-0.0996691,-0.08821397,0.2041208,-0.5626608,0.3048615,0.744036,25.32292,-25.39349,-38.23671,994.9414
0.450098514,0.02396514,-0.02895316,0.2040567,-0.5596768,0.2985244,0.745265,24.96007,-25.42009,-37.34364,994.9414
0.452558040,0.1475605,0.08952198,-0.03975594,-0.5650433,0.2936288,0.7436954,24.96007,-25.42009,-37.34364,994.9414
0.455018043,0.08571269,0.03026084,-0.1006806,-0.563029,0.2949817,0.7505198,24.96007,-25.42009,-37.34364,994.9414
0.457477093,0.08568574,-0.02898164,0.02122535,-0.5606272,0.2994269,0.7487005,24.96007,-25.42009,-37.34364,994.9414
0.459937096,0.0856588,0.08949351,0.02121869,-0.5616418,0.2975591,0.7437935,24.96007,-25.42009,-37.34364,994.9414
0.462396622,-0.03797108,0.1486985,0.02121204,-0.5630583,0.2993776,0.7501755,24.96007,-25.42009,-37.34364,994.9414
0.464855671,-0.03795917,0.1486518,0.02120538,-0.5626349,0.3019188,0.7449126,24.96007,-25.42009,-37.34364,994.9414
0.467315674,0.02385424,-0.08832698,0.08213586,-0.5644792,0.2944538,0.7519714,24.96007,-25.42009,-37.34364,994.9414
0.469775200,0.1474497,-0.02906618,0.08211005,-0.5590857,0.297851,0.7554348,24.96007,-25.42009,-37.34364,994.9414
0.472234249,-0.161604,-0.1475231,-0.03979003,-0.563031,0.2945034,0.750019,24.96007,-25.42009,-37.34364,994.9396
0.474694252,-0.03795032,0.03022231,-0.1007147,-0.562066,0.2993592,0.7516233,24.96007,-25.42009,-37.34364,994.9396
0.477153778,0.08566452,-0.02902018,0.2040027,-0.5601362,0.2999097,0.7491975,24.96007,-25.42009,-37.34364,994.9396
0.479612827,-0.09976679,-0.02901103,-0.03981,-0.562171,0.3039002,0.7435157,24.96007,-25.42009,-37.34364,994.9396
0.482072830,-0.09973542,-0.08823498,-0.1007346,-0.5626297,0.3043197,0.7469317,24.96007,-25.42009,-37.34364,994.9396
0.484532356,-0.03790263,-0.0882073,0.1430456,-0.5635784,0.299915,0.7472838,24.96007,-25.42009,-37.34364,994.9396
0.486992359,0.1475137,0.08951949,0.1430006,-0.5626193,0.2999601,0.7453352,24.96007,-25.42009,-37.34364,994.9396
0.489451408,-0.09973849,-0.08820774,0.08201855,-0.5587128,0.2985605,0.7438016,24.96007,-25.42009,-37.34364,994.9396
0.494370937,-0.09969528,-0.1473481,0.1429042,-0.5656039,0.3038873,0.7425724,24.96007,-25.42009,-37.34364,994.9396
0.496829986,-0.03786248,0.1488634,0.08192214,-0.5660484,0.2951185,0.7418094,24.96007,-25.42009,-37.34364,994.9396
0.499289513,0.02395087,0.08958358,0.1428335,-0.5654608,0.2958982,0.7525113,25.33123,-25.77502,-37.80101,994.9396
0.501749515,0.2093477,-0.08814367,0.0209144,-0.5654901,0.300294,0.752167,25.33123,-25.77502,-37.80101,994.9396
0.504208565,0.08567902,-0.02888298,-0.1619036,-0.5615509,0.3022065,0.7560802,25.33123,-25.77502,-37.80101,994.9396
0.506668568,0.02385064,0.03035917,-0.03997847,-0.562627,0.3038323,0.746916,25.33123,-25.77502,-37.80101,994.9396
0.509128094,0.08564459,-0.02888344,0.08190836,-0.5636463,0.3053491,0.7435743,25.33123,-25.77502,-37.80101,994.9396
0.511587143,-0.09978672,0.1488247,0.1428198,-0.5655531,0.3023435,0.7468923,25.33123,-25.77502,-37.80101,994.9396
0.514047146,0.02384757,0.1487779,0.02090062,-0.5650912,0.3038464,0.7449946,25.33123,-25.77502,-37.80101,994.9396
0.516506672,-0.09976284,-0.08820096,-0.1009802,-0.5635203,0.2978746,0.7520732,25.33123,-25.77502,-37.80101,994.9396
0.518965721,0.02387145,-0.02894028,-0.1009485,-0.5640202,0.2998199,0.7521397,25.33123,-25.77502,-37.80101,994.9396
0.521425724,0.3946728,0.08953486,-0.1009168,-0.5626357,0.3028846,0.7454291,25.33123,-25.77502,-37.80101,994.9396
0.523885250,0.1473429,-0.02895927,0.08192632,-0.5616173,0.2965479,0.7457031,25.33123,-25.77502,-37.80101,994.9396
0.526344299,-0.0381078,0.03028288,0.1428377,-0.5659837,0.296923,0.7496353,25.33123,-25.77502,-37.80101,994.9396
0.528804302,0.0855071,-0.02895961,0.08185572,-0.5591944,0.2980596,0.7442751,25.33123,-25.77502,-37.80101,994.9396
0.533723831,0.1472548,0.148739,0.02088629,-0.561585,0.2974503,0.7496161,25.33123,-25.77502,-37.80101,994.9396
0.536185741,0.02360561,0.03022626,0.08181686,-0.5630115,0.296877,0.7534937,25.33123,-25.77502,-37.80101,994.9396
0.538642406,0.02359819,-0.1474823,0.2036654,-0.5635292,0.3003027,0.7526367,25.33123,-25.77502,-37.80101,994.9396
0.541102409,0.08539225,-0.088203,0.1426643,-0.5640304,0.3008038,0.7516858,25.33123,-25.77502,-37.80101,994.9396
0.543561458,0.08536543,0.08952379,-0.0401919,-0.5631347,0.3004885,0.7429287,25.33123,-25.77502,-37.80101,994.9396
0.546020985,0.0853386,-0.02897034,0.1426322,-0.563067,0.29843,0.7486886,25.33123,-25.77502,-37.80101,994.9396
0.548480987,-0.1000926,0.0895048,0.1425873,-0.5635586,0.2955373,0.7466577,25.32292,-25.39349,-38.23671,994.9396
0.550940037,0.2089462,0.08947666,0.0816054,-0.5640384,0.2988904,0.7496824,25.32292,-25.39349,-38.23671,994.9396
0.553399563,0.02347614,-0.02901747,-0.04029451,-0.5631536,0.3005248,0.7409878,25.32292,-25.39349,-38.23671,994.9379
0.555859566,0.08527021,0.1486908,0.08159244,-0.5645431,0.3008447,0.7492636,25.32292,-25.39349,-38.23671,994.9379
0.558319092,0.08524344,0.03017801,0.0815668,-0.5635827,0.302334,0.7483325,25.32292,-25.39349,-38.23671,994.9379
0.560778618,0.2088196,0.1486346,0.08154117,-0.5597121,0.3014852,0.7434182,25.32292,-25.39349,-38.23671,994.9379
0.565697670,0.08508544,-0.08839083,0.02047623,-0.5659859,0.2998203,0.7511848,25.32292,-25.39349,-38.23671,994.9379
0.568157673,-0.03854426,-0.1475961,-0.04046734,-0.5620732,0.2964801,0.7491034,25.32292,-25.39349,-38.23671,994.9379
0.570616722,0.2086737,-0.0290837,0.02048253,-0.5606321,0.3028116,0.7502657,25.32292,-25.39349,-38.23671,994.9379
0.573076248,0.2704097,-0.1475406,0.08141325,-0.5605881,0.3007984,0.7535995,25.32292,-25.39349,-38.23671,994.9379
0.575536251,0.0849203,-0.2067273,-0.04048661,-0.5674891,0.3037336,0.749866,25.32292,-25.39349,-38.23671,994.9379
0.577995300,0.1466951,-0.02896322,-0.04047387,-0.564578,0.2970542,0.743316,25.32292,-25.39349,-38.23671,994.9379
0.580454826,0.2702519,0.207978,0.02047599,-0.5611171,0.3003883,0.7492208,25.32292,-25.39349,-38.23671,994.9379
0.582914829,0.02296116,0.03021361,0.08140671,-0.5601807,0.299513,0.7443298,25.32292,-25.39349,-38.23671,994.9379
0.585373878,0.2701598,-0.02902889,0.08138113,-0.5620958,0.3013452,0.7497452,25.32292,-25.39349,-38.23671,994.9379
0.587833881,0.2082735,-0.08825284,0.1422927,-0.563574,0.3032816,0.7498194,25.32292,-25.39349,-38.23671,994.9379
0.590293407,0.208208,-0.02899204,0.2031852,-0.5650024,0.2988543,0.7511457,25.32292,-25.39349,-38.23671,994.9379
0.592752457,0.08453967,0.03025011,0.2640585,-0.5635276,0.2983711,0.7516037,25.32292,-25.39349,-38.23671,994.9379
0.595212459,0.02271165,-0.02899238,-0.1625845,-0.5659533,0.2973469,0.7530473,25.32292,-25.39349,-38.23671,994.9379
0.600131035,0.08447948,0.1486877,-0.04068463,-0.5626096,0.2965663,0.7442552,24.94435,-25.37757,-38.62061,994.9379
0.602591038,0.08445295,0.08940795,0.1421396,-0.5571902,0.2970208,0.7485952,24.94435,-25.37757,-38.62061,994.9379
0.605050564,0.08442642,0.03014681,0.08115778,-0.5634839,0.2997336,0.7569879,24.94435,-25.37757,-38.62061,994.9379
0.607510567,0.2080028,-0.02909568,0.1420694,-0.5611792,0.3014719,0.7434298,24.94435,-25.37757,-38.62061,994.9379
0.609969616,0.2079375,0.08937947,0.202962,-0.5607034,0.2971621,0.7394034,24.94435,-25.37757,-38.62061,994.9379
0.612429142,0.1460707,-0.02911466,0.0810239,-0.5655237,0.2979476,0.7472366,24.94435,-25.37757,-38.62061,994.9379
0.614889145,0.1460248,-0.1475716,0.08099844,-0.5611252,0.3018505,0.7492678,24.94435,-25.37757,-38.62061,994.9379
0.617348194,0.08417744,0.03017383,0.02003584,-0.5630697,0.2989174,0.7487043,24.94435,-25.37757,-38.62061,994.9379
0.619807720,0.207754,0.03016433,0.202841,-0.5592419,0.3015259,0.7414734,24.94435,-25.37757,-38.62061,994.9379
0.622267723,0.1458872,-0.08831116,0.2027773,-0.5606219,0.3018277,0.7507195,24.94435,-25.37757,-38.62061,994.9379
0.624726772,0.0840399,0.1486487,0.1417764,-0.5625598,0.2993639,0.751142,24.94435,-25.37757,-38.62061,994.9379
0.627186298,0.08401348,-0.08833003,0.2636062,-0.557672,0.2998955,0.751119,24.94435,-25.37757,-38.62061,994.9379
0.629646301,0.1457886,-0.02906923,0.1416491,-0.5664998,0.2984171,0.7477453,24.94435,-25.37757,-38.62061,994.9379
0.632105350,0.02213982,-0.08829308,0.2025417,-0.5670326,0.3062114,0.7479995,24.94435,-25.37757,-38.62061,994.9379
0.637024879,0.0839468,0.03020988,0.08054019,-0.5650171,0.2964717,0.7481563,24.94435,-25.37757,-38.62061,994.9345
0.639483929,0.2075234,0.03020038,0.2023892,-0.5635954,0.3004296,0.7458438,24.94435,-25.37757,-38.62061,994.9345
0.641943931,0.2074582,0.08942389,0.2023256,-0.5581964,0.3028519,0.7492759,24.94435,-25.37757,-38.62061,994.9345
0.644403458,0.0219886,0.08939575,0.202262,-0.5581847,0.2999364,0.7486968,24.94435,-25.37757,-38.62061,994.9345
0.646862507,-0.03981979,-0.02909839,0.1412613,-0.5572675,0.3024731,0.7439152,24.58081,-26.12045,-38.2608,994.9345
0.649322510,0.1455971,0.03014376,0.2630912,-0.5587158,0.3024235,0.7458677,24.58081,-26.12045,-38.2608,994.9345
0.651782036,0.2691543,0.1486004,0.1411343,-0.5640491,0.2974644,0.7476946,24.58081,-26.12045,-38.2608,994.9345
0.654241085,0.2072683,0.0300876,0.01921568,-0.5645904,0.3009354,0.7444116,24.58081,-26.12045,-38.2608,994.9345
0.656701088,0.1454017,0.0300781,0.1410839,-0.5645782,0.3004299,0.7453663,24.58081,-26.12045,-38.2608,994.9345
0.659160614,0.02175307,0.08930172,0.1410396,-0.5630969,0.3004159,0.7468103,24.58081,-26.12045,-38.2608,994.9345
0.661622047,0.08354773,-0.02919241,0.08005815,-0.5625738,0.2960154,0.747636,24.58081,-26.12045,-38.2608,994.9345
0.664079666,0.1453229,-0.02918326,0.1409701,-0.5654852,0.2969093,0.7506018,24.58081,-26.12045,-38.2608,994.9345
0.666539192,0.0834758,0.2669911,0.1409259,-0.5636185,0.3028848,0.7449517,24.58081,-26.12045,-38.2608,994.9345
0.668999195,0.1452511,0.1484411,0.07994444,-0.5616108,0.3003929,0.7487395,24.58081,-26.12045,-38.2608,994.9345
0.671458244,0.08340393,0.02992847,0.2017936,-0.5660154,0.295055,0.7452058,24.58081,-26.12045,-38.2608,994.9345
0.673917770,-0.04022524,-0.207013,0.2017302,-0.5670561,0.3028811,0.7435232,24.58081,-26.12045,-38.2608,994.9372
0.676383018,0.02158887,-0.206948,0.01885541,-0.5650564,0.2984758,0.7453076,24.58081,-26.12045,-38.2608,994.9372
0.681296348,0.1451588,0.03003956,0.0188053,-0.5620837,0.3008396,0.7506999,24.58081,-26.12045,-38.2608,994.9372
0.683756351,0.08331177,0.03003007,-0.04213774,-0.5607334,0.3025237,0.7395755,24.58081,-26.12045,-38.2608,994.9372
0.686215877,0.0832856,-0.02921242,0.07974979,-0.5645242,0.3008084,0.7512045,24.58081,-26.12045,-38.2608,994.9372
0.688675880,0.08325943,-0.2069024,0.2625362,-0.5620381,0.2968949,0.7530007,24.58081,-26.12045,-38.2608,994.9372
0.691134930,0.08323324,0.03009471,0.2015165,-0.5620971,0.299901,0.7487278,24.58081,-26.12045,-38.2608,994.9372
0.693594456,0.08320707,-0.02914777,0.07957897,-0.5616596,0.3024151,0.7449206,24.58081,-26.12045,-38.2608,994.9372
0.696054459,0.02137946,0.03009438,0.01861683,-0.5641128,0.3004796,0.7429364,24.57521,-25.38716,-38.23833,994.9372
0.698513508,0.08317423,-0.02914811,0.01861099,-0.5655578,0.3023525,0.7464071,24.57521,-25.38716,-38.23833,994.9372
0.700978756,0.08314811,-0.08837195,0.07954228,-0.5630294,0.301733,0.7546206,24.57521,-25.38716,-38.23833,994.9372
0.703433037,0.1449235,-0.08834416,0.01858015,-0.5626057,0.2975231,0.745257,24.57521,-25.38716,-38.23833,994.9372
0.705892086,0.2066794,0.08938263,0.01857431,-0.5631081,0.29658,0.7432888,24.57521,-25.38716,-38.23833,994.9372
0.708352089,0.144813,0.2078206,0.01856846,-0.5626287,0.2999782,0.7443648,24.57521,-25.38716,-38.23833,994.9372
0.710811615,0.206569,-0.08840982,0.01856262,-0.56256,0.3027395,0.7531924,24.57521,-25.38716,-38.23833,994.9372
0.713270664,0.1447026,-0.08838201,0.01855678,-0.5606143,0.2979556,0.7491388,24.57521,-25.38716,-38.23833,994.9372
0.715730667,0.02105425,-0.1475873,0.1404252,-0.5630521,0.297437,0.7496277,24.57521,-25.38716,-38.23833,994.9372
0.720649242,0.1446245,0.03014862,0.2013316,-0.5620882,0.2974731,0.7481644,24.57521,-25.38716,-38.23833,994.9372
0.723109245,0.02097613,-0.02909387,0.2012683,-0.5620354,0.2964075,0.7529851,24.57521,-25.38716,-38.23833,994.9372
0.725568771,0.08277103,0.08938128,-0.04254345,-0.562587,0.3008624,0.7492481,24.57521,-25.38716,-38.23833,994.9372
0.728027821,0.2681494,-0.147579,-0.04253008,-0.5626006,0.3032995,0.7493264,24.57521,-25.38716,-38.23833,994.9372
0.730487823,0.02085934,-0.1475326,0.01842043,-0.5610785,0.29935,0.752586,24.57521,-25.38716,-38.23833,994.9372
0.732947349,-0.0409487,0.1486789,-0.1034596,-0.561113,0.301345,0.7502226,24.57521,-25.38716,-38.23833,994.9372
0.735406399,-0.04093585,0.08939914,0.01844717,-0.5620822,0.2989081,0.7496669,24.57521,-25.38716,-38.23833,994.9372
0.737866402,0.08267993,-0.2067941,0.07937852,-0.558574,0.2929903,0.7547892,24.57521,-25.38716,-38.23833,994.9372
0.740325928,0.08265393,-0.2067291,0.2012279,-0.5626327,0.2990215,0.7433631,24.57521,-25.38716,-38.23833,994.9372
0.742785931,0.1444294,0.03026797,0.2621018,-0.5626554,0.3038867,0.7440047,24.57521,-25.38716,-38.23833,994.9372
0.745244980,0.144384,-0.08820763,0.1401452,-0.5591056,0.2930675,0.7504262,24.94906,-25.39032,-38.23752,994.9372
0.747704506,0.0825372,-0.2066459,0.2010383,-0.5636008,0.3014044,0.7458751,24.94906,-25.39032,-38.23752,994.9372
0.752623558,0.1443257,-0.02885428,0.07909513,-0.5625713,0.2989036,0.7496708,24.94906,-25.39032,-38.23752,994.9372
0.755083084,0.1442803,-0.08807823,0.07907028,-0.5621231,0.2936825,0.7422166,24.94906,-25.39032,-38.23752,994.9354
0.757543087,0.144235,-0.02881755,-0.04282885,-0.5625225,0.2968814,0.7534898,24.94906,-25.39032,-38.23752,994.9354
0.760002136,0.1441897,0.0896576,0.01812175,-0.566009,0.3022755,0.7502926,24.94906,-25.39032,-38.23752,994.9354
0.762462139,0.08234288,0.03039635,0.07905319,-0.5605886,0.2983886,0.7520657,24.94906,-25.39032,-38.23752,994.9354
0.764921665,0.08231699,0.03038686,0.0180912,-0.558142,0.2964792,0.7510133,24.94906,-25.39032,-38.23752,994.9354
0.767380714,0.2058941,0.08961036,0.2008969,-0.5605861,0.3012768,0.7541004,24.94906,-25.39032,-38.23752,994.9354
0.769840717,0.2676309,0.2080482,0.07895953,-0.5654947,0.2969274,0.7496314,24.94906,-25.39032,-38.23752,994.9354
0.772300243,0.02034093,0.03028379,0.07893474,-0.5602011,0.3014808,0.743422,24.94906,-25.39032,-38.23752,994.9354
0.774759293,0.02033456,-0.08819181,0.1398471,-0.5601578,0.3004334,0.7472723,24.94906,-25.39032,-38.23752,994.9354
0.777219295,0.08212963,-0.08816412,0.078866,-0.5606421,0.3004199,0.7477614,24.94906,-25.39032,-38.23752,994.9354
0.779678822,0.02030237,-0.08813643,0.07884123,-0.5630697,0.2989174,0.7487043,24.94906,-25.39032,-38.23752,994.9354
0.782137871,0.02029601,0.1488234,0.01787933,-0.5679569,0.29742,0.7482108,24.94906,-25.39032,-38.23752,994.9354
0.784597874,-0.1033133,0.2080097,-0.1649377,-0.5635723,0.2979744,0.7467359,24.94906,-25.39032,-38.23752,994.9354
0.789517403,0.0202963,0.148646,0.1398133,-0.564036,0.2926174,0.7460825,24.94906,-25.39032,-38.23752,994.9354
0.791976452,-0.04151156,-0.02909974,0.01789512,-0.5631596,0.2990897,0.7394853,24.94906,-25.39032,-38.23752,994.9354
0.794435978,-0.04149853,-0.02909059,0.01788951,-0.5577153,0.3009429,0.7472686,25.33403,-26.14167,-37.81225,994.9337
0.796895981,-0.0414855,-0.02908144,0.1397582,-0.5659257,0.2982583,0.7564751,25.33403,-26.14167,-37.81225,994.9337
0.799360752,0.02032902,0.2078598,0.2006514,-0.5650641,0.3023479,0.7468884,25.33403,-26.14167,-37.81225,994.9337
0.801814556,-0.1032803,0.03009539,-0.04316017,-0.5621249,0.3023654,0.7473504,25.33403,-26.14167,-37.81225,994.9337
0.804274559,-0.04144635,-0.0291471,0.1396648,-0.5616066,0.2979739,0.7476909,25.33403,-26.14167,-37.81225,994.9337
0.806734085,0.1439711,-0.08837094,0.2005581,-0.5630819,0.2994229,0.7477494,25.33403,-26.14167,-37.81225,994.9337
0.809193611,0.02032295,0.03012286,0.0786208,-0.5665081,0.2998793,0.7477922,25.33403,-26.14167,-37.81225,994.9337
0.811653137,0.2675224,0.1485795,0.07859609,-0.5586103,0.3002925,0.7555092,25.33403,-26.14167,-37.81225,994.9337
0.814112663,0.2056369,0.03006669,-0.04330289,-0.5601146,0.299386,0.7511227,25.33403,-26.14167,-37.81225,994.9337
0.816572666,0.02016789,-0.0884088,0.07858498,-0.5670491,0.2999747,0.7424588,25.33403,-26.14167,-37.81225,994.9337
0.819031715,0.08196302,-0.088381,0.07856031,-0.5665135,0.3008542,0.7478235,25.33403,-26.14167,-37.81225,994.9337
0.821491241,0.02013582,0.08934591,0.01759849,-0.5610946,0.2988988,0.7506295,25.33403,-26.14167,-37.81225,994.9337
0.823951244,0.08193094,0.03008477,0.07853011,-0.5639817,0.2987815,0.7555048,25.33403,-26.14167,-37.81225,994.9337
0.826410294,-0.04169775,-0.02915772,0.1394426,-0.5645936,0.2990129,0.7428933,25.33403,-26.14167,-37.81225,994.9337
0.831329823,0.08195081,-0.08844689,-0.1043362,-0.563051,0.3022568,0.7526954,25.33403,-26.14167,-37.81225,994.9337
0.833788872,-0.04167788,0.148513,-0.04336626,-0.561138,0.2999462,0.7467792,25.33403,-26.14167,-37.81225,994.9337
0.836248875,-0.1034662,0.03000035,0.01758451,-0.5587056,0.3014396,0.7463216,25.33403,-26.14167,-37.81225,994.9319
0.838708401,0.08197068,-0.08847514,0.07851613,-0.5621769,0.3024651,0.7420132,25.33403,-26.14167,-37.81225,994.9319
0.841167450,0.02014348,-0.02921434,-0.04338282,-0.5606678,0.2999869,0.7448345,25.33403,-26.14167,-37.81225,994.9319
0.843627453,0.08193861,-0.1476712,0.1394422,-0.55967,0.2989937,0.7462511,25.33403,-26.14167,-37.81225,994.9319
0.846086979,0.08191285,-0.02915874,0.2612727,-0.5606468,0.300429,0.7472762,24.59182,-26.15021,-37.36692,994.9319
0.848546028,-0.1035173,0.08931652,-0.04349511,-0.5660061,0.2984125,0.7482266,24.59182,-26.15021,-37.36692,994.9319
0.851006031,-0.04168331,0.2077545,0.01745569,-0.5646366,0.3058459,0.7426272,24.59182,-26.15021,-37.36692,994.9319
0.853465557,-0.04167021,0.2669223,-0.1044241,-0.5621379,0.3038367,0.7469121,24.59182,-26.15021,-37.36692,994.9319
0.855924606,0.2055487,0.02990632,-0.1043913,-0.5625646,0.2993729,0.7506568,24.59182,-26.15021,-37.36692,994.9319
0.858384609,0.02007975,0.02989694,0.01751583,-0.5605772,0.2988488,0.7535369,24.59182,-26.15021,-37.36692,994.9319
0.863304138,0.02006713,0.02989683,-0.0434706,-0.5626369,0.3014405,0.7444117,24.59182,-26.15021,-37.36692,994.9319
0.865763187,0.08186232,-0.02934555,0.07841733,-0.5626148,0.3033267,0.7478708,24.59182,-26.15021,-37.36692,994.9319
0.868222713,-0.04176632,0.08912971,-0.1044187,-0.5655652,0.302849,0.7459375,24.59182,-26.15021,-37.36692,994.9319
0.870682716,0.08184976,0.02986869,-0.1653231,-0.5567582,0.3005097,0.7448192,24.59182,-26.15021,-37.36692,994.9319
0.873141766,0.02002256,-0.2070728,0.07847744,-0.5607237,0.2991299,0.7384956,24.59182,-26.15021,-37.36692,994.9319
0.875601292,-0.1035867,-0.0885417,-0.1652958,-0.5655138,0.3003394,0.749741,24.59182,-26.15021,-37.36692,994.9302
0.878061295,-0.1035541,0.0891852,-0.2871181,-0.5601524,0.2994586,0.747241,24.59182,-26.15021,-37.36692,994.9302
0.880520344,0.02008134,0.08915717,-0.04327938,-0.560146,0.2941423,0.7446429,24.59182,-26.15021,-37.36692,994.9302
0.882979870,-0.1035279,0.1483621,-0.1651401,-0.5591295,0.2964885,0.7500506,24.59182,-26.15021,-37.36692,994.9302
0.885439873,-0.2270983,0.08908247,-0.04321392,-0.5631046,0.2951269,0.7427565,24.59182,-26.15021,-37.36692,994.9302
0.887898922,0.02017892,0.02982145,-0.04320034,-0.5655739,0.3019013,0.7444506,24.59182,-26.15021,-37.36692,994.9302
0.890358925,-0.04162889,0.02981207,0.01775037,-0.5640011,0.2964079,0.7520302,24.59182,-26.15021,-37.36692,994.9302
0.892818451,-0.1034173,0.1482688,-0.04319235,-0.5596293,0.2950581,0.7480667,24.59182,-26.15021,-37.36692,994.9302
0.895277500,-0.1651863,0.02975613,-0.1650531,-0.5582584,0.3005599,0.7414344,24.95187,-25.75697,-38.24876,994.9302
0.900197029,-0.1651214,0.08898912,-0.2258674,-0.5649929,0.2988362,0.7521161,24.95187,-25.75697,-38.24876,994.9302
0.902656078,-0.1650695,0.2074272,0.07888931,-0.5606334,0.3013675,0.7492483,24.95187,-25.75697,-38.24876,994.9302
0.905116081,-0.2268191,0.148129,0.07886451,-0.5621906,0.3049022,0.7420914,24.95187,-25.75697,-38.24876,994.9302
0.907575607,-0.04134348,-0.02961667,-0.04303455,-0.562651,0.2980921,0.7409058,24.95187,-25.75697,-38.24876,994.9302
0.910035610,-0.04133051,0.02962571,-0.1648953,-0.5640545,0.2984393,0.7477259,24.95187,-25.75697,-38.24876,994.9302
0.912494659,0.0822854,-0.02961667,-0.2257807,-0.5635217,0.2998061,0.7531062,24.95187,-25.75697,-38.24876,994.9302
0.914954185,-0.1649463,-0.0888404,-0.04289829,-0.5620849,0.2993955,0.7496825,24.95187,-25.75697,-38.24876,994.9302
0.917414188,-0.103093,-0.08881249,0.01805233,-0.5636021,0.2999603,0.7448578,24.95187,-25.75697,-38.24876,994.9285
0.919873238,-0.1648621,0.08891454,-0.1038276,-0.5625927,0.2960517,0.7456952,24.95187,-25.75697,-38.24876,994.9285
0.922332764,-0.1030088,0.02965362,0.01807931,-0.5591735,0.2985017,0.7467167,24.95187,-25.75697,-38.24876,994.9285
0.924792767,-0.164778,0.08887735,-0.1038007,-0.562626,0.2994908,0.7443491,24.95187,-25.75697,-38.24876,994.9285
0.927252293,-0.2265277,0.02961644,-0.04283091,-0.5576909,0.2999318,0.7491781,24.95187,-25.75697,-38.24876,994.9285
0.929711342,-0.1028536,0.2073063,-0.1646917,-0.5635315,0.2940387,0.7485516,24.95187,-25.75697,-38.24876,994.9285
0.932175159,-0.0410198,0.08877508,-0.04276572,-0.5659493,0.2983037,0.7540491,24.95187,-25.75697,-38.24876,994.9285
0.934630871,-0.1028084,-0.02971883,0.01818485,-0.5659466,0.2978162,0.7540334,24.95187,-25.75697,-38.24876,994.9285
0.937090874,0.02082685,0.08875654,-0.1036952,-0.5591723,0.2999457,0.7477341,24.95187,-25.75697,-38.24876,994.9285
0.939549923,-0.1645841,0.2664277,-0.04272543,-0.5630535,0.2993685,0.7506607,24.95187,-25.75697,-38.24876,994.9285
0.942009449,-0.2263339,0.266344,0.01822513,-0.5659909,0.303205,0.7527499,24.95187,-25.75697,-38.24876,994.9285
0.946928501,-0.1025499,0.02933752,-0.04272345,-0.5592041,0.3014534,0.7453551,25.32573,-25.76014,-38.24795,994.9285
0.949388027,-0.04071623,0.02932826,-0.3473957,-0.5567365,0.299986,0.7467443,25.32573,-25.76014,-38.24795,994.9285
0.951848030,-0.2261079,0.1477851,-0.3472866,-0.5582193,0.3019315,0.7463334,25.32573,-25.76014,-38.24795,994.9285
0.954311848,-0.1642354,-0.02996046,-0.1034289,-0.5636105,0.3047982,0.746955,25.32573,-25.76014,-38.24795,994.9285
0.956766605,-0.04058086,-0.1484171,-0.1033964,-0.558186,0.2984924,0.7476795,25.32573,-25.76014,-38.24795,994.9328
0.959226608,-0.2259725,-0.0299044,-0.1033639,-0.5586718,0.3004104,0.7492015,25.32573,-25.76014,-38.24795,994.9328
0.961685657,-0.2259016,-0.148361,-0.2252057,-0.5616019,0.2979649,0.7481762,25.32573,-25.76014,-38.24795,994.9328
0.964145660,-0.2258306,-0.2667804,-0.1032607,-0.5616193,0.2960696,0.7452022,25.32573,-25.76014,-38.24795,994.9328
0.966605186,-0.1021567,-0.2074636,-0.2251026,-0.5625997,0.2989581,0.7467595,25.32573,-25.76014,-38.24795,994.9328
0.969064236,-0.163926,-0.1481654,-0.04222044,-0.5630494,0.2969496,0.749612,25.32573,-25.76014,-38.24795,994.9328
0.971524239,-0.1020731,-0.1481188,-0.04220718,-0.5596298,0.2926482,0.7465329,25.32573,-25.76014,-38.24795,994.9328
0.973983765,0.2069664,-0.08883927,-0.1031311,-0.5581696,0.2955678,0.7475855,25.32573,-25.76014,-38.24795,994.9328
0.976442814,0.0214969,-0.1480443,-0.04216152,-0.5650604,0.2975191,0.7443059,25.32573,-25.76014,-38.24795,994.9328
0.978902817,-0.04031131,-0.08876479,0.1406631,-0.5591556,0.3028068,0.7512245,25.32573,-25.76014,-38.24795,994.9328
0.983822346,-0.04028596,0.08899014,0.01873876,-0.5655814,0.3023979,0.743981,25.32573,-25.76014,-38.24795,994.9328
0.986281395,-0.1020748,-0.02950388,0.1406072,-0.5621453,0.3043332,0.7464426,25.32573,-25.76014,-38.24795,994.9328
0.988740921,-0.1638442,-0.02949461,0.2015001,-0.5591826,0.3043053,0.7493306,25.32573,-25.76014,-38.24795,994.9328
0.991200924,-0.1019912,-0.08871834,0.0186254,-0.5635774,0.3047347,0.7503515,25.32573,-25.76014,-38.24795,994.9328
0.993659973,-0.1019592,0.02977557,-0.1641919,-0.5645693,0.2980018,0.7448029,25.69958,-25.76331,-38.24714,994.9328
0.996119499,0.1452787,-0.08869981,-0.1032031,-0.5645018,0.299319,0.7526131,25.69958,-25.76331,-38.24714,994.9328
0.998579502,0.1452331,-0.0294389,0.0796407,-0.5606202,0.2965205,0.7476362,25.69958,-25.76331,-38.24714,994.9328
1.001038551,-0.1020184,-0.08866262,0.07961567,-0.5596315,0.2979554,0.7496163,25.69958,-25.76331,-38.24714,994.9328
1.003498077,-0.04018491,-0.08863483,0.01865351,-0.5615797,0.299851,0.7516351,25.69958,-25.76331,-38.24714,994.9328
1.005958080,0.0216292,0.02985908,0.01864764,-0.5640175,0.2993325,0.7521241,25.69958,-25.76331,-38.24714,994.9328
1.008417130,-0.1019805,0.1483158,-0.1032325,-0.5611549,0.3004608,0.7453393,25.69958,-25.76331,-38.24714,994.9328
1.010877132,0.1452574,-0.02942986,-0.04226293,-0.557674,0.2994172,0.7506181,25.69958,-25.76331,-38.24714,994.9328
1.013336658,0.2688147,-0.08865359,0.1405618,-0.5557211,0.2975124,0.7490844,25.69958,-25.76331,-38.24714,994.9328
1.015795708,0.1451273,-0.02939267,0.07958048,-0.5592101,0.3000183,0.7438524,25.69958,-25.76331,-38.24714,994.9328
1.020715237,0.2068376,-0.1478589,-0.04232464,-0.5582676,0.3063636,0.7440482,25.69958,-25.76331,-38.24714,994.9328
1.023174286,0.0213682,0.08911965,0.07956295,-0.5660155,0.2984306,0.7472562,25.69958,-25.76331,-38.24714,994.9328
1.025634289,0.02136148,0.02985863,0.2014122,-0.5635446,0.2988857,0.7501637,25.69958,-25.76331,-38.24714,994.9328
1.028093815,0.02135476,-0.2070829,0.1404118,-0.5625827,0.2984435,0.7481995,25.69958,-25.76331,-38.24714,994.9328
1.030552864,-0.0404534,0.02991435,0.01849341,-0.5635887,0.3008989,0.7468299,25.69958,-25.76331,-38.24714,994.9328
1.033012867,-0.1022422,0.148371,-0.1033867,-0.5640864,0.2999468,0.7453468,25.69958,-25.76331,-38.24714,994.9328
1.035472393,0.08319439,0.08909129,0.07945724,-0.5645993,0.3033634,0.7449751,25.69958,-25.76331,-38.24714,994.9328
1.037932396,0.08316828,0.2075294,-0.04244201,-0.5596808,0.2975677,0.7442633,25.69958,-25.76331,-38.24714,994.9328
1.040391445,0.02134066,-0.02946794,-0.164303,-0.5601501,0.2965612,0.7456915,25.69958,-25.76331,-38.24714,994.9328
1.042850971,-0.04046749,0.08900732,0.0794972,-0.5601307,0.2989348,0.7491662,25.32292,-25.39349,-38.23671,994.9328
1.045310974,0.02134668,0.02974629,0.07947224,-0.5621715,0.3014903,0.7419819,25.32292,-25.39349,-38.23671,994.9328
1.047770500,0.08314145,0.08897002,-0.04242701,-0.5636196,0.2980651,0.7418839,25.32292,-25.39349,-38.23671,994.9328
1.050229549,-0.1022891,0.029709,0.07946061,-0.5630861,0.3018419,0.7487981,25.32292,-25.39349,-38.23671,994.9328
1.052689552,-0.04045546,-0.08876637,-0.1643129,-0.5616601,0.3000052,0.7433867,25.32292,-25.39349,-38.23671,994.9328
1.057608604,-0.04042999,0.08896991,0.07951973,-0.5611367,0.3013903,0.7477966,25.32292,-25.39349,-38.23671,994.9328
1.060071468,0.02138417,-0.02952411,-0.1033167,-0.5591499,0.2984563,0.7491428,25.32292,-25.39349,-38.23671,994.9328
1.062527657,-0.1022255,0.08895126,-0.1032842,-0.5631121,0.2956234,0.742287,25.32292,-25.39349,-38.23671,994.9328
1.064987659,0.08321102,-0.02954276,-0.04231464,-0.5630825,0.297013,0.7462156,25.32292,-25.39349,-38.23671,994.9328
1.067446709,0.02138341,0.08893262,0.01863581,-0.5601498,0.3023468,0.7492757,25.32292,-25.39349,-38.23671,994.9328
1.069906235,-0.04042481,-0.0295614,0.1405042,-0.5635459,0.2974416,0.7491463,25.32292,-25.39349,-38.23671,994.9328
1.072366238,0.2067938,0.148147,0.01858582,-0.561491,0.294859,0.7577863,25.32292,-25.39349,-38.23671,994.9328
1.074825287,0.1449273,0.02963441,0.2013914,-0.5601175,0.3032491,0.7531887,25.32292,-25.39349,-38.23671,994.9328
1.077284813,0.08308031,0.08885814,0.07945386,-0.5625402,0.2983618,0.7525663,25.32292,-25.39349,-38.23671,994.9328
1.079744816,0.1448557,0.2072963,-0.04244538,-0.5611569,0.2999825,0.7448384,25.32292,-25.39349,-38.23671,994.9294
1.082203865,0.1448102,-0.02970086,0.07944223,-0.5626044,0.2989671,0.7462744,25.32292,-25.39349,-38.23671,994.9294
1.084663868,0.2065662,-0.2073906,-0.04245701,-0.5654702,0.2959163,0.7515409,25.32292,-25.39349,-38.23671,994.9294
1.087123394,0.2683027,0.02960672,0.1403677,-0.561573,0.3003204,0.7526212,25.32292,-25.39349,-38.23671,994.9294
1.092043877,0.08282685,0.1479983,0.07936158,-0.5626213,0.2994818,0.7448344,24.57521,-25.38716,-38.23833,994.9294
1.094501972,0.08280086,0.08871879,0.07933664,-0.5581347,0.2993584,0.7535332,24.57521,-25.38716,-38.23833,994.9294
1.096961021,0.02097336,-0.02977511,0.01837456,-0.561661,0.3043467,0.7459535,24.57521,-25.38716,-38.23833,994.9294
1.099421024,0.2063712,0.1479334,-0.1035055,-0.5601919,0.3048383,0.7464428,24.57521,-25.38716,-38.23833,994.9294
1.101880550,0.2063063,0.1478869,-0.103473,-0.5615762,0.2983979,0.751103,24.57521,-25.38716,-38.23833,994.9294
1.104339600,-0.1027658,0.2070735,-0.1034405,-0.5586621,0.2970166,0.7481216,24.57521,-25.38716,-38.23833,994.9294
1.106799603,-0.1027335,0.2070084,-0.2252823,-0.5621291,0.3047843,0.7483991,24.57521,-25.38716,-38.23833,994.9294
1.109259129,0.08270317,-0.1484548,0.0185371,-0.5630561,0.2964803,0.748626,24.57521,-25.38716,-38.23833,994.9294
1.111719131,-0.1027272,0.02929096,-0.103343,-0.55962,0.2984156,0.7510875,24.57521,-25.38716,-38.23833,994.9294
1.114178181,-0.1644964,-0.0299513,0.01856373,-0.5611315,0.3037911,0.7498156,24.57521,-25.38716,-38.23833,994.9294
1.116637707,0.02095968,0.02929119,-0.1033164,-0.5586792,0.3009068,0.748732,24.57521,-25.38716,-38.23833,994.9294
1.119097710,0.08275457,0.02928204,-0.1032839,-0.5615626,0.2959608,0.7510247,24.57521,-25.38716,-38.23833,994.9294
1.121556759,-0.04087435,0.02927288,-0.1032515,-0.5630496,0.3003252,0.7516624,24.57521,-25.38716,-38.23833,994.9294
1.124016285,-0.102663,0.02926373,-0.04228191,-0.5640904,0.2989901,0.7443451,24.57521,-25.38716,-38.23833,994.9294
1.126476288,0.1445751,-0.02997854,0.01866851,-0.5616426,0.3019005,0.7463605,24.57521,-25.38716,-38.23833,994.9294
1.131394863,-0.1026828,-0.02995978,0.01873336,-0.5646339,0.3053584,0.7426116,24.57521,-25.38716,-38.23833,994.9294
1.133854866,-0.164452,0.02928271,0.07966463,-0.5641245,0.3033951,0.7435156,24.57521,-25.38716,-38.23833,994.9294
1.136313915,-0.2880033,-0.08919255,0.0796396,-0.5669857,0.3003352,0.7492673,24.57521,-25.38716,-38.23833,994.9294
1.138773918,-0.1643098,-0.02993152,0.01867743,-0.5669591,0.2964267,0.7496274,24.57521,-25.38716,-38.23833,994.9294
1.141233444,0.02114617,-0.08915514,-0.04226558,-0.561119,0.2999099,0.74872,24.58071,-25.40204,-37.79139,994.9294
1.143692493,0.0211395,0.2662711,-0.04225229,-0.5616527,0.2995088,0.7438561,24.58071,-25.40204,-37.79139,994.9294
1.146152496,-0.0406686,0.1477214,-0.04223901,-0.5607117,0.302,0.7415007,24.58071,-25.40204,-37.79139,994.9294
1.148612022,-0.0406558,-0.0300242,-0.1641,-0.5616404,0.2990032,0.744811,24.58071,-25.40204,-37.79139,994.9294
1.151071072,-0.2878489,0.08845129,-0.1031113,-0.5684799,0.3018204,0.7473851,24.58071,-25.40204,-37.79139,994.9294
1.153531075,-0.1023541,-0.0300425,-0.2249532,-0.5655916,0.3033818,0.7435272,24.58071,-25.40204,-37.79139,994.9294
1.155990601,-0.04052044,-0.3261982,-0.1030083,-0.5621984,0.2996132,0.7380376,24.58071,-25.40204,-37.79139,994.9294
1.158450604,-0.1641106,-0.08916362,-0.163913,-0.5650524,0.2994325,0.7463093,24.58071,-25.40204,-37.79139,994.9294
1.160909653,-0.1640591,-0.08913559,-0.2857358,-0.5620914,0.2955506,0.7466461,24.58071,-25.40204,-37.79139,994.9337
1.165829182,0.02140952,-0.02986518,-0.1637778,-0.5606591,0.3009345,0.7463214,24.58071,-25.40204,-37.79139,994.9337
1.168289661,-0.04039869,-0.0298558,-0.1637263,-0.5582377,0.3043776,0.7459264,24.58071,-25.40204,-37.79139,994.9337
1.170747757,-0.04038601,0.02938657,-0.1636749,-0.5635595,0.2998787,0.7492246,24.58071,-25.40204,-37.79139,994.9337
1.173207760,-0.04037334,0.02937731,-0.04174919,-0.5611489,0.3018959,0.7468418,24.58071,-25.40204,-37.79139,994.9337
1.175667286,-0.2257651,-0.02986496,0.01920106,-0.5635623,0.3003661,0.7492402,24.58071,-25.40204,-37.79139,994.9337
1.178131104,0.0215117,-0.02985558,-0.1636164,-0.5625784,0.3051857,0.7527854,24.58071,-25.40204,-37.79139,994.9337
1.180586338,0.02150492,0.08861991,-0.2245021,-0.5621082,0.3052264,0.7508407,24.58071,-25.40204,-37.79139,994.9337
1.183045864,-0.1021048,-0.029874,-0.1634945,-0.5606394,0.2999325,0.7477458,24.58071,-25.40204,-37.79139,994.9337
1.185505867,-0.2256756,0.2070675,-0.2243802,-0.5640302,0.2974282,0.7496355,24.58071,-25.40204,-37.79139,994.9337
1.187964916,0.08340257,0.1477694,-0.1024355,-0.560124,0.2994041,0.7501522,24.58071,-25.40204,-37.79139,994.9337
1.190424442,-0.04022659,-0.1484422,-0.1633404,-0.5561715,0.2964697,0.7524534,24.95737,-25.77185,-37.80182,994.9337
1.192884445,-0.1020154,-0.08916248,-0.1632891,-0.5587141,0.2971163,0.7427843,24.95737,-25.77185,-37.80182,994.9337
1.197803021,-0.2255155,-0.02992926,0.01960575,-0.5601262,0.3023014,0.7517018,24.95737,-25.77185,-37.80182,994.9337
1.200268269,-0.04004023,0.08854622,0.01959959,-0.5596606,0.2989755,0.7472215,24.95737,-25.77185,-37.80182,994.932
1.202722073,-0.1636306,0.1477514,-0.04134371,-0.5562183,0.2989703,0.7491352,24.95737,-25.77185,-37.80182,994.932
1.205182076,-0.410785,-0.02999413,-0.163205,-0.5601332,0.2960466,0.7471314,24.95737,-25.77185,-37.80182,994.932
1.207641602,-0.1016486,-0.08921775,-0.04127945,-0.5625889,0.300384,0.7487473,24.95737,-25.77185,-37.80182,994.932
1.210100651,-0.1016167,-0.02995673,-0.04126648,-0.5674517,0.3012511,0.7522138,24.95737,-25.77185,-37.80182,994.932
1.212560654,-0.2869892,0.02928576,-0.1021907,-0.5616026,0.2989306,0.7486926,24.95737,-25.77185,-37.80182,994.932
1.215020180,-0.03969309,0.1477426,-0.2240328,-0.5601628,0.3038181,0.7488375,24.95737,-25.77185,-37.80182,994.932
1.217479229,-0.1632836,-0.08923595,-0.2239625,-0.5616959,0.3005562,0.7400059,24.95737,-25.77185,-37.80182,994.932
1.219939232,-0.2250338,-0.207674,-0.1020178,-0.5626071,0.2994546,0.74629,24.95737,-25.77185,-37.80182,994.932
1.222398758,-0.1013602,0.08855639,-0.04104863,-0.5620443,0.2988355,0.7535486,24.95737,-25.77185,-37.80182,994.932
1.224857807,-0.2249313,0.0292956,-0.16291,-0.5605643,0.2973775,0.7539752,24.95737,-25.77185,-37.80182,994.932
1.227317810,-0.1012576,-0.2076458,-0.1019217,-0.562587,0.3008624,0.7492481,24.95737,-25.77185,-37.80182,994.932
1.229777336,-0.03942437,-0.2668135,0.0199846,-0.5587168,0.2976038,0.7427999,24.95737,-25.77185,-37.80182,994.932
1.232237339,-0.1630149,-0.2074967,-0.2847074,-0.5621417,0.2995044,0.74386,24.95737,-25.77185,-37.80182,994.932
1.234696388,-0.1011622,-0.02973239,-0.2236808,-0.560618,0.2936232,0.7460867,24.95737,-25.77185,-37.80182,994.932
1.237155914,-0.162932,0.08874298,-0.1017363,-0.5626442,0.2985614,0.7418919,24.95737,-25.77185,-37.80182,994.932
1.242074966,-0.03924608,-0.0889933,-0.04077349,-0.5621153,0.2989716,0.7462705,24.57801,-25.7538,-38.24956,994.9303
1.244534493,0.02256774,-0.2074314,0.1420507,-0.5631317,0.2966254,0.7408627,24.57801,-25.7538,-38.24956,994.9303
1.246994495,-0.03924083,-0.02966719,0.02013182,-0.5591262,0.298411,0.7515688,24.57801,-25.7538,-38.24956,994.9303
1.249453545,-0.03922851,0.08880819,-0.1017488,-0.5679357,0.2944863,0.7486021,24.57801,-25.7538,-38.24956,994.9303
1.251913071,-0.03921619,0.08878028,0.02015746,-0.5636494,0.300051,0.7400057,24.57801,-25.7538,-38.24956,994.9303
1.254373074,-0.03920387,0.08875236,0.02015112,-0.5621668,0.3014812,0.742467,24.57801,-25.7538,-38.24956,994.9303
1.256832123,0.1462129,0.02949145,0.02014478,-0.5616146,0.2960605,0.7456874,24.57801,-25.7538,-38.24956,994.9303
1.259292126,0.08436546,-0.02975081,0.08107559,-0.5620414,0.2949724,0.7514825,24.57801,-25.7538,-38.24956,994.9303
1.261751652,0.08433893,-0.08897454,0.2638615,-0.5596755,0.2999685,0.7462824,24.57801,-25.7538,-38.24956,994.9303
1.264210701,0.08431245,-0.1481796,0.02003006,-0.563562,0.2969905,0.7471898,24.57801,-25.7538,-38.24956,994.9303
1.266670704,0.08428598,0.02956604,-0.04091338,-0.5610763,0.2964526,0.7510365,24.57801,-25.7538,-38.24956,994.9303
1.269130230,0.08425951,0.08878977,0.1419109,-0.5606852,0.2980916,0.7418607,24.57801,-25.7538,-38.24956,994.9303
1.274050713,-0.2247814,0.02951959,0.2027972,-0.5620822,0.2989081,0.7496669,24.57801,-25.7538,-38.24956,994.9303
1.276508808,0.0224951,-0.08895578,0.2027335,-0.5630543,0.3003343,0.7511772,24.57801,-25.7538,-38.24956,994.9303
1.278967857,0.2078924,-0.08892787,0.2026698,-0.5645586,0.2994278,0.7467906,24.57801,-25.7538,-38.24956,994.9303
1.281427860,0.1460257,0.02956615,0.08073182,-0.5665104,0.2936155,0.7437071,24.57801,-25.7538,-38.24956,994.9286
1.283887386,0.08417833,-0.02967611,0.01976931,-0.5625809,0.3022974,0.7507507,24.57801,-25.7538,-38.24956,994.9286
1.286347389,0.08415186,0.02956626,0.2025745,-0.5635993,0.2994729,0.7448421,24.57801,-25.7538,-38.24956,994.9286
1.288806438,0.08412544,0.029557,0.2025109,-0.5659802,0.2954698,0.7491031,24.57801,-25.7538,-38.24956,994.9286
1.291265964,0.1459005,0.08878072,0.1415101,-0.5625531,0.2998331,0.7521281,24.57801,-25.7538,-38.24956,994.9286
1.293725967,0.08405316,-0.02971318,0.1414657,-0.5655008,0.298868,0.7501792,24.57801,-25.7538,-38.24956,994.9286
1.296185493,0.1458282,-0.08893691,0.08048408,-0.5665346,0.3037878,0.7474322,24.57801,-25.7538,-38.24956,994.9286
1.298644543,0.1457824,0.0887901,0.0804588,-0.5596591,0.297044,0.7461885,24.57801,-25.7538,-38.24956,994.9286
1.301104545,0.08393519,-0.0297038,0.263245,-0.5577307,0.299526,0.7447957,24.57801,-25.7538,-38.24956,994.9286
1.303564071,-0.03969409,-0.02969442,0.141288,-0.56411,0.2999922,0.7429208,24.57801,-25.7538,-38.24956,994.9286
1.308483124,0.08391438,-0.02969431,0.2021364,-0.5611249,0.2950992,0.7451671,24.57801,-25.7538,-38.24956,994.9286
1.310942650,0.1456895,-0.08891804,0.1411357,-0.5635852,0.2994457,0.7462977,24.57801,-25.7538,-38.24956,994.9286
1.313402653,0.08384221,-0.02965713,0.1410914,-0.5597061,0.3029202,0.7449207,24.57801,-25.7538,-38.24956,994.9286
1.315861702,0.1456174,0.08881824,0.1410471,-0.5606205,0.2998962,0.7496866,24.57801,-25.7538,-38.24956,994.9286
1.318321228,0.2691745,0.08879033,0.1410028,-0.5645063,0.2959523,0.7500775,24.57801,-25.7538,-38.24956,994.9286
1.320781231,0.02188407,0.02952942,-0.1027901,-0.5631356,0.3048299,0.7454956,24.57801,-25.7538,-38.24956,994.9286
1.323240280,0.02187717,-0.02971284,0.08005358,-0.5625898,0.2921886,0.7436292,24.57801,-25.7538,-38.24956,994.9269
1.325699806,0.08367177,-0.02970346,0.323777,-0.5630675,0.2960201,0.7471547,24.57801,-25.7538,-38.24956,994.9269
1.328159809,0.02184404,-0.08892719,0.07992671,-0.5582064,0.3004602,0.7467716,24.57801,-25.7538,-38.24956,994.9269
1.330618858,0.08363863,0.02956683,0.0799016,-0.5645531,0.298453,0.7467594,24.57801,-25.7538,-38.24956,994.9269
1.333078861,0.2072153,0.02955756,0.1408136,-0.5655118,0.3008177,0.7502418,24.57801,-25.7538,-38.24956,994.9269
1.335538387,0.3307531,0.1480143,0.1407694,-0.565039,0.300371,0.7482815,24.57801,-25.7538,-38.24956,994.9269
1.337997436,0.2070462,-0.02973126,0.07978804,-0.5606377,0.2946253,0.7446624,24.58071,-25.40204,-37.79139,994.9269
1.340457439,0.08337828,-0.02972188,0.2016373,-0.5646356,0.3015044,0.7400604,24.58071,-25.40204,-37.79139,994.9269
1.342916965,-0.04025083,0.02952049,0.3234482,-0.5597222,0.3024691,0.7429642,24.58071,-25.40204,-37.79139,994.9269
1.347836017,0.14514,-0.08890831,0.140491,-0.5640386,0.302266,0.7517328,24.58071,-25.40204,-37.79139,994.9269
1.350295544,-0.04030996,-0.2665795,0.1404469,-0.5626091,0.2989762,0.7457891,24.58071,-25.40204,-37.79139,994.9269
1.352755546,0.1451071,0.1481354,0.07946564,-0.5625773,0.2974686,0.7481682,24.58071,-25.40204,-37.79139,994.9269
1.355214596,0.02145864,0.266555,0.07944067,-0.5601733,0.2990165,0.7447994,24.58071,-25.40204,-37.79139,994.9269
1.357674122,0.08325335,0.08877214,0.01847856,-0.5621722,0.3024561,0.7424983,24.58071,-25.40204,-37.79139,994.9269
1.360134125,0.2686316,-0.02972177,0.01847275,-0.559637,0.2989302,0.7496476,24.58071,-25.40204,-37.79139,994.9269
1.362593174,0.1449442,0.02952061,0.07940407,-0.5610859,0.2998464,0.7521165,24.58071,-25.40204,-37.79139,994.9234
1.365052700,0.1448987,-0.1481878,0.018442,-0.5610966,0.2984205,0.7501287,24.58071,-25.40204,-37.79139,994.9234
1.367512703,0.08305172,-0.1481412,0.01843621,-0.563065,0.2989083,0.7491894,24.58071,-25.40204,-37.79139,994.9234
1.369971752,0.02122417,-0.08886164,0.01843043,-0.560614,0.2945799,0.7470884,24.58071,-25.40204,-37.79139,994.9234
1.372431278,-0.04058399,0.02963238,-0.04251249,-0.5631706,0.3010393,0.7395479,24.58071,-25.40204,-37.79139,994.9234
1.374891281,0.1448332,-0.02961,0.1403123,-0.5640444,0.2974554,0.7481799,24.58071,-25.40204,-37.79139,994.9234
1.377350330,0.2065891,0.08886537,0.3230796,-0.5625653,0.3003387,0.7511733,24.58071,-25.40204,-37.79139,994.9234
1.379810333,0.0829213,0.02960446,0.01829242,-0.5625616,0.2955098,0.7485908,24.58071,-25.40204,-37.79139,994.9234
1.384728908,-0.04075314,0.02958593,0.01830007,-0.5587294,0.3048606,0.7459459,24.58071,-25.40204,-37.79139,994.9234
1.387188911,0.08286259,-0.1481224,0.01829431,-0.5601559,0.3009117,0.7477732,24.95187,-25.75697,-38.24876,994.9234
1.389648437,0.08283652,-0.08884288,0.2011,-0.5621314,0.2985204,0.744314,24.95187,-25.75697,-38.24876,994.9234
1.392107487,0.08281052,-0.02958197,0.07916253,-0.5611541,0.2994951,0.7448227,24.95187,-25.75697,-38.24876,994.9234
1.394567489,0.02098303,0.0296604,0.07913765,-0.5674879,0.2960165,0.7452487,24.95187,-25.75697,-38.24876,994.9234
1.397027016,0.02097643,0.02965114,0.1400499,-0.5630745,0.2989264,0.7482191,24.95187,-25.75697,-38.24876,994.9234
1.399486065,0.08277132,0.08887487,0.01813166,-0.5615957,0.2960243,0.7476283,24.95187,-25.75697,-38.24876,994.9234
1.401946068,0.1445468,-0.02961915,-0.04281118,-0.5644501,0.2934337,0.7543661,24.95187,-25.75697,-38.24876,994.9234
1.404405594,0.1445014,-0.1480759,0.01813942,-0.5625877,0.3018281,0.7497647,24.95187,-25.75697,-38.24876,994.9277
1.406865597,0.08265452,-0.02956332,-0.04280342,-0.5621641,0.3009938,0.7424514,24.95187,-25.75697,-38.24876,994.9277
1.409324646,0.08262859,-0.14802,-0.04278996,-0.5621366,0.3052808,0.7479295,24.95187,-25.75697,-38.24876,994.9277
1.411784172,-0.04100029,0.0297255,-0.2255879,-0.5625573,0.3022521,0.7531767,24.95187,-25.75697,-38.24876,994.9277
1.414244175,0.02081406,0.2074152,0.0182315,-0.5615761,0.2950222,0.7490526,24.95187,-25.75697,-38.24876,994.9277
1.416703224,0.02080752,0.02965102,-0.1036485,-0.5680501,0.2990454,0.739524,24.95187,-25.75697,-38.24876,994.9277
1.419162750,0.08260246,-0.1480573,0.1401326,-0.5636157,0.3023974,0.744936,24.95187,-25.75697,-38.24876,994.9277
1.424082279,-0.0409941,-0.02955417,0.01817031,-0.5595982,0.2945162,0.7509623,24.95187,-25.75697,-38.24876,994.9277
1.426541328,0.02082025,0.0889212,0.01816462,-0.559237,0.2981412,0.7399083,24.95187,-25.75697,-38.24876,994.9277
1.429001331,0.02081371,0.2073593,-0.1646525,-0.5611225,0.3013631,0.7492522,24.95187,-25.75697,-38.24876,994.9277
1.431460857,-0.1645973,-0.08887102,-0.04272651,-0.5601207,0.3013266,0.7516705,24.95187,-25.75697,-38.24876,994.9277
1.433920860,-0.1645456,-0.2073092,0.0791612,-0.5606018,0.3032356,0.7536778,24.95187,-25.75697,-38.24876,994.9277
1.436379909,-0.1026924,0.08892109,0.07913631,-0.5620998,0.3003885,0.7487434,24.95737,-25.77185,-37.80182,994.9277
1.438839435,-0.1026602,-0.02957293,-0.04276284,-0.5631322,0.3033767,0.7449635,24.95737,-25.77185,-37.80182,994.9277
1.441299438,-0.1026279,0.08890244,-0.1646237,-0.5641068,0.3019146,0.744439,24.95737,-25.77185,-37.80182,994.9277
1.443758488,-0.04079423,-0.08882458,-0.164572,-0.5626168,0.3028483,0.7473699,24.95737,-25.77185,-37.80182,994.926
1.446218014,-0.1025829,-0.02956366,0.1401654,-0.5635866,0.3013772,0.7473307,24.95737,-25.77185,-37.80182,994.926
1.448678017,0.0210523,0.0296786,0.07918427,-0.5616071,0.2955641,0.7461571,24.95737,-25.77185,-37.80182,994.926
1.451137066,0.1446486,-0.08879677,0.07915939,-0.5635745,0.3008717,0.7482855,24.95737,-25.77185,-37.80182,994.926
1.453597069,0.02100025,-0.02953586,0.01819737,-0.5650601,0.3033046,0.7478902,24.95737,-25.77185,-37.80182,994.926
1.456056595,0.02099364,0.08893951,-0.2255569,-0.5615904,0.2984251,0.7496474,24.95737,-25.77185,-37.80182,994.926
1.458515644,-0.1026159,-0.02955451,-0.1036118,-0.5625833,0.2960336,0.7466656,24.95737,-25.77185,-37.80182,994.926
1.460975647,0.02101929,0.02968775,0.0792322,-0.5601788,0.2999913,0.7448307,24.95737,-25.77185,-37.80182,994.926
1.465894222,-0.1025774,-0.02954536,0.01826443,-0.5659473,0.298782,0.7545499,24.95737,-25.77185,-37.80182,994.926
1.468354225,-0.1025452,-0.02953609,0.01825871,-0.5620538,0.2988537,0.7525781,24.95737,-25.77185,-37.80182,994.926
1.470813751,-0.1643144,-0.02952682,-0.1645585,-0.5625735,0.3018009,0.7512203,24.95737,-25.77185,-37.80182,994.926
1.473272800,-0.1024614,0.08894855,0.01830466,-0.5621499,0.3009666,0.743907,24.95737,-25.77185,-37.80182,994.926
1.475732803,-0.04062768,-0.02954547,0.0182989,-0.559234,0.3034393,0.7434769,24.95737,-25.77185,-37.80182,994.926
1.478192329,-0.1024164,-0.0887692,-0.04264399,-0.558677,0.2980095,0.7471824,24.95737,-25.77185,-37.80182,994.926
1.480652332,0.08302017,0.02972471,0.07924368,-0.5571196,0.2910993,0.752289,24.95737,-25.77185,-37.80182,994.926
1.483111381,-0.1642118,0.1481814,0.2010931,-0.5611243,0.2975091,0.7467009,24.95737,-25.77185,-37.80182,994.926
1.485570907,-0.1023587,-0.1480302,-0.1036558,-0.5591987,0.3004785,0.7453238,24.95737,-25.77185,-37.80182,994.926
1.488030910,-0.1023266,-0.1479838,-0.04268607,-0.5631177,0.2999738,0.7443687,24.95737,-25.77185,-37.80182,994.926
1.490489960,0.02130847,-0.2664033,0.01826449,-0.5620178,0.2949271,0.7539085,24.95737,-25.77185,-37.80182,994.926
1.492949486,-0.1023012,-0.1478536,-0.0426784,-0.565044,0.2945945,0.744212,24.95737,-25.77185,-37.80182,994.926
1.495409489,-0.2876735,0.08912496,-0.1036021,-0.5660051,0.3032323,0.7512943,24.95737,-25.77185,-37.80182,994.926
1.497868538,-0.1021787,0.08909694,0.01830469,-0.5635393,0.3012865,0.7521828,24.95737,-25.77185,-37.80182,994.926
1.500328064,-0.0403451,0.02983591,0.07923607,-0.56262,0.3009259,0.7458517,24.95737,-25.77185,-37.80182,994.926
1.502788067,-0.04033242,-0.2663386,0.07921119,-0.5635887,0.3008989,0.7468299,24.95737,-25.77185,-37.80182,994.926
1.507707119,0.02147497,-0.08852803,-0.1035926,-0.5645986,0.3023976,0.7444585,24.95737,-25.77185,-37.80182,994.926
1.510166645,-0.1639362,0.08919887,-0.1644972,-0.5650957,0.3004799,0.7424589,24.95737,-25.77185,-37.80182,994.926
1.512626648,-0.2256861,0.08917085,0.01836593,-0.5640538,0.2974735,0.7472094,24.95737,-25.77185,-37.80182,994.926
1.515085697,-0.1638138,0.08914282,0.07929731,-0.5596404,0.3003834,0.7501797,24.95737,-25.77185,-37.80182,994.926
1.517545223,-0.04015938,0.0298818,0.01833527,-0.5621491,0.3000008,0.7433906,24.95737,-25.77185,-37.80182,994.926
1.520004272,-0.04014677,0.02987242,0.1402038,-0.5606695,0.2961329,0.7422832,24.95737,-25.77185,-37.80182,994.926
1.522464275,-0.04013415,-0.08860307,-0.04265169,-0.5611157,0.3018323,0.7502382,24.95737,-25.77185,-37.80182,994.926
1.524923801,-0.04012153,-0.02934216,0.07923599,-0.5567109,0.300419,0.7496713,24.95737,-25.77185,-37.80182,994.926
1.527383804,0.02169252,0.02990011,-0.0426632,-0.5635899,0.2994548,0.7458125,24.95737,-25.77185,-37.80182,994.926
1.529842853,0.02168568,-0.02934227,-0.1035869,-0.5601748,0.300948,0.7458323,24.95737,-25.77185,-37.80182,994.926
1.532302379,-0.04012259,0.2075991,-0.04261725,-0.5611163,0.2994225,0.7487044,24.95737,-25.77185,-37.80182,994.926
1.534762382,-0.1637129,0.02983478,0.01833329,-0.5640289,0.2988722,0.7506528,24.95737,-25.77185,-37.80182,994.926
1.537221432,-0.04005851,-0.0886407,-0.0426096,-0.5606498,0.304292,0.7493422,24.95187,-25.75697,-38.24876,994.926
1.539680958,-0.04004595,0.0298532,0.07927807,-0.5596911,0.3019272,0.7458597,24.95187,-25.75697,-38.24876,994.926
1.544600487,-0.04005957,0.02977862,0.01825283,-0.5606412,0.2960785,0.7451945,24.95187,-25.75697,-38.24876,994.926
1.547059536,0.08355597,-0.02946376,-0.04269003,-0.5607257,0.2986516,0.7379947,24.95187,-25.75697,-38.24876,994.926
1.549519539,0.08352974,0.0890115,0.01826054,-0.5655198,0.2989043,0.7482384,24.95187,-25.75697,-38.24876,994.926
1.551979065,-0.1637024,-0.08871552,0.01825481,-0.5630279,0.2998015,0.7535876,24.95187,-25.75697,-38.24876,994.926
1.554438591,0.08355498,0.02977839,0.1401234,-0.5576615,0.3046972,0.7551571,24.95187,-25.75697,-38.24876,994.926
1.556898117,0.1453302,0.2074681,0.2010165,-0.559167,0.3023466,0.7497532,24.95187,-25.75697,-38.24876,994.926
1.559357643,-0.04011988,0.0297038,0.07907905,-0.5606416,0.3028297,0.7492952,24.95187,-25.75697,-38.24876,994.926
1.561817646,-0.04010727,-0.1480046,-0.04282007,-0.561645,0.2956366,0.7422754,24.95187,-25.75697,-38.24876,994.926
1.564277172,-0.1018961,-0.08872501,-0.1037438,-0.5645613,0.2999152,0.7468063,24.95187,-25.75697,-38.24876,994.926
1.566740036,-0.1636656,-0.0294641,0.07910027,-0.5635272,0.300781,0.7531375,24.95187,-25.75697,-38.24876,994.926
1.569196224,-0.04001128,-0.02945483,0.1400126,-0.5630549,0.2979244,0.7496433,24.95187,-25.75697,-38.24876,994.926
1.571655273,0.1454057,-0.08867856,0.07903145,-0.56456,0.3013593,0.7478237,24.95187,-25.75697,-38.24876,994.926
1.574115276,0.02175708,-0.02941765,-0.04286768,-0.5586596,0.2999048,0.7501563,24.95187,-25.75697,-38.24876,994.926
1.576575279,-0.04005126,-0.08864149,-0.04285422,-0.5650979,0.3033772,0.7440085,24.95187,-25.75697,-38.24876,994.926
1.579033852,0.0217628,-0.02938058,-0.04284077,-0.5587149,0.2980821,0.7433009,24.95187,-25.75697,-38.24876,994.926
1.581493854,0.02175596,0.02986168,0.1399841,-0.5611392,0.2985021,0.7457618,24.95187,-25.75697,-38.24876,994.926
1.583953380,0.08355061,0.2075514,0.07900301,-0.5620309,0.2997741,0.7555206,24.95187,-25.75697,-38.24876,994.926
1.586412430,0.1453258,0.08902009,0.01804106,-0.5581661,0.3032759,0.752688,24.58351,-25.76868,-37.80262,994.926
1.591331959,0.02163162,-0.08867902,-0.04290742,-0.5640651,0.2936376,0.7436877,24.58351,-25.76868,-37.80262,994.926
1.593791008,0.02162484,0.02981489,-0.04289393,-0.5601042,0.2950265,0.7495262,24.58351,-25.76868,-37.80262,994.926
1.596251011,0.145221,-0.1478936,0.139931,-0.5576964,0.3009066,0.7492094,24.58351,-25.76868,-37.80262,994.926
1.598710537,0.08337392,0.1483181,0.07894985,-0.5635948,0.3028395,0.7473776,24.58351,-25.76868,-37.80262,994.926
1.601170540,0.02154625,0.2075045,0.2007993,-0.5670539,0.2999838,0.7419736,24.58351,-25.76868,-37.80262,994.926
1.603629589,0.08334096,0.0889733,0.01792482,-0.5572202,0.3023824,0.7487673,24.58351,-25.76868,-37.80262,994.926
1.606089115,0.1451162,0.08894539,0.01791918,-0.5601842,0.3009661,0.744862,24.58351,-25.76868,-37.80262,994.926
1.608549118,0.08326915,0.1481505,0.01791354,-0.5621207,0.2999464,0.7463018,24.58351,-25.76868,-37.80262,994.926
1.611011505,0.02144154,0.08887091,0.1397822,-0.5635944,0.2960882,0.743277,24.58351,-25.76868,-37.80262,994.926
1.613467693,-0.04036668,0.148076,0.01786401,-0.5625798,0.2945804,0.7461335,24.58351,-25.76868,-37.80262,994.926
1.615927696,0.08324893,0.1480294,0.0178584,-0.5581449,0.3003423,0.7530793,24.58351,-25.76868,-37.80262,994.926
1.618386745,0.1450242,0.02951688,0.01785279,-0.5611096,0.2998918,0.7496905,24.58351,-25.76868,-37.80262,994.926
1.620846271,0.1449787,-0.08895849,0.1397215,-0.5616201,0.2970354,0.7457187,24.58351,-25.76868,-37.80262,994.926
1.623306274,0.1449331,0.2072346,-0.04313387,-0.5611277,0.2989623,0.7472331,24.58351,-25.76868,-37.80262,994.926
1.625765324,0.08308609,0.2664025,0.07875398,-0.563121,0.2980514,0.7428504,24.58351,-25.76868,-37.80262,994.926
1.628225326,0.08305997,0.1478528,0.1396664,-0.5621078,0.2984751,0.74674,24.58351,-25.76868,-37.80262,994.926
1.630684853,0.1448354,0.02934024,0.1396225,-0.5606416,0.3028297,0.7492952,24.58351,-25.76868,-37.80262,994.926
1.633143902,0.1447898,0.1477971,0.07864149,-0.5611056,0.3008485,0.7506921,24.58351,-25.76868,-37.80262,994.926
1.638063431,0.2065198,0.029201,0.1395292,-0.5596984,0.2990481,0.7433399,24.96287,-25.78673,-37.35488,994.926
1.640522480,0.3300578,0.02919185,0.1394854,-0.5640491,0.2974644,0.7476946,24.96287,-25.78673,-37.35488,994.926
1.642982483,0.02094677,0.08841569,0.1394415,-0.5620891,0.3018144,0.7507312,24.96287,-25.78673,-37.35488,994.926
1.645442009,0.02094017,0.02915489,0.01752347,-0.5581806,0.2975175,0.7476481,24.96287,-25.78673,-37.35488,994.926
1.647902012,0.08273506,0.08837873,-0.04341919,-0.5581489,0.2993856,0.7520776,24.96287,-25.78673,-37.35488,994.9244
1.650361061,0.08270906,0.02911794,0.07846875,-0.5645396,0.2993915,0.7487315,24.96287,-25.78673,-37.35488,994.9244
1.652820587,0.206286,0.08834178,0.1393812,-0.5610877,0.2959924,0.7495652,24.96287,-25.78673,-37.35488,994.9244
1.655280590,0.2062212,0.02908098,0.2002746,-0.5655903,0.3048259,0.7445445,24.96287,-25.78673,-37.35488,994.9244
1.657739639,0.02075198,0.08830483,-0.04353688,-0.5655205,0.29987,0.7487549,24.96287,-25.78673,-37.35488,994.9244
1.660199165,0.08254693,0.08827714,0.07835109,-0.5626166,0.2994727,0.7453195,24.96287,-25.78673,-37.35488,994.9244
1.662659168,0.08252098,-0.08944965,0.07832647,-0.5625823,0.3008533,0.7497334,24.96287,-25.78673,-37.35488,994.9244
1.665118217,-0.04110788,-0.03018852,0.07830185,-0.5610961,0.3008303,0.7516626,24.96287,-25.78673,-37.35488,994.9244
1.667577743,0.08250796,0.02905397,0.2001515,-0.561591,0.2960152,0.7481135,24.96287,-25.78673,-37.35488,994.9244
1.670037746,-0.04112091,-0.08942118,0.01727723,-0.563569,0.2998968,0.7482542,24.96287,-25.78673,-37.35488,994.9244
1.674956798,0.02068701,0.2068002,-0.04363247,-0.5631008,0.2994592,0.7458086,24.96287,-25.78673,-37.35488,994.9244
1.677416325,-0.1029224,-0.08942988,0.1391927,-0.5601686,0.2990074,0.7452846,24.96287,-25.78673,-37.35488,994.9244
1.679875851,0.1443158,0.1475304,0.07821178,-0.5576773,0.2974947,0.7490999,24.96287,-25.78673,-37.35488,994.9244
1.682335854,0.206072,0.02901792,0.07818721,-0.5645199,0.2983895,0.7501558,24.96287,-25.78673,-37.35488,994.9244
1.684794903,0.08240431,-0.1486903,0.07816266,-0.5620105,0.2978063,0.7564285,24.95223,-25.09967,-37.78122,994.9244
1.687254429,0.1441799,0.02905544,0.07813809,-0.5591553,0.2994311,0.7491741,24.95223,-25.09967,-37.78122,994.9225
1.689714432,-0.04126984,0.0882794,-0.04376074,-0.5576831,0.3052208,0.7532319,24.95223,-25.09967,-37.78122,994.9225
1.692173481,-0.04125687,-0.0302144,0.01719014,-0.5586996,0.3028747,0.7478242,24.95223,-25.09967,-37.78122,994.9225
1.694633484,0.08235903,0.02902809,-0.0437524,-0.5611663,0.3000006,0.7438679,24.95223,-25.09967,-37.78122,994.9225
1.697093010,0.02053171,0.02901894,-0.04373865,-0.5591539,0.2974996,0.7481411,24.95223,-25.09967,-37.78122,994.9225
1.699552059,-0.04127621,-0.08945621,0.1390865,-0.5571693,0.2974629,0.7510368,24.95223,-25.09967,-37.78122,994.9225
1.702012062,0.02053826,-0.1486612,0.07810568,-0.5615302,0.296863,0.7549376,24.95223,-25.09967,-37.78122,994.9225
1.706930637,0.08234624,0.1475044,0.2608872,-0.5596715,0.3009252,0.7472841,24.95223,-25.09967,-37.78122,994.9225
1.709395409,0.02051892,0.02899193,0.07799381,-0.5596499,0.3004015,0.7492093,24.95223,-25.09967,-37.78122,994.9225
1.711850166,0.08231393,0.02898278,-0.04390497,-0.5611069,0.2994044,0.7496748,24.95223,-25.09967,-37.78122,994.9225
1.714309215,0.08228805,0.08820673,-0.1048283,-0.5596409,0.2979735,0.7486458,24.95223,-25.09967,-37.78122,994.9225
1.716769218,0.1440637,-0.08952006,-0.04385826,-0.5626733,0.2995815,0.7394971,24.95223,-25.09967,-37.78122,994.9225
1.719228744,0.08221695,-0.08949192,0.138967,-0.5582111,0.3004692,0.7462865,24.95223,-25.09967,-37.78122,994.9225
1.721688747,0.02038963,0.1474683,0.07798617,-0.5591785,0.3018863,0.748282,24.95223,-25.09967,-37.78122,994.9225
1.724147797,-0.1032197,0.08818898,-0.04391261,-0.5600479,0.2925077,0.7538148,24.95223,-25.09967,-37.78122,994.9225
1.726607323,-0.1649888,-0.03030481,-0.104836,-0.5587489,0.302487,0.7424712,24.95223,-25.09967,-37.78122,994.9225
1.729067326,-0.1031355,-0.1487613,0.0780084,-0.559755,0.3083181,0.743152,24.95223,-25.09967,-37.78122,994.9225
1.731526375,-0.226706,-0.1487145,-0.04389038,-0.562613,0.3071807,0.750422,24.95223,-25.09967,-37.78122,994.9225
1.733985901,-0.1648333,-0.2079008,-0.1048137,-0.5591332,0.3013173,0.7526332,25.33123,-25.77502,-37.80101,994.9225
1.736445904,-0.04117863,-0.3263016,0.1389678,-0.5666026,0.3000607,0.7380881,25.33123,-25.77502,-37.80101,994.9225
1.738904953,-0.1029672,0.08843208,0.01704984,-0.5592287,0.3058401,0.7454959,25.33123,-25.77502,-37.80101,994.9225
1.741364479,-0.2265377,-0.2077608,-0.2267041,-0.5616462,0.3033537,0.7468926,25.33123,-25.77502,-37.80101,994.9225
1.743824482,-0.1028636,-0.2669286,-0.1047586,-0.5664755,0.297406,0.7496548,25.33123,-25.77502,-37.80101,994.9225
1.746283531,-0.1028313,-0.08914565,0.07808577,-0.5606175,0.2960331,0.7476205,25.33123,-25.77502,-37.80101,994.9225
1.751203060,-0.1645682,-0.08912688,-0.04385672,-0.5606413,0.2994541,0.7472448,25.33123,-25.77502,-37.80101,994.9225
1.753662109,0.08268937,0.08860024,0.01709419,-0.5640817,0.2999378,0.745832,25.33123,-25.77502,-37.80101,994.9225
1.756122112,0.2062664,-0.08912666,-0.04384832,-0.5635866,0.3013772,0.7473307,25.33123,-25.77502,-37.80101,994.9225
1.758581638,-0.0410043,-0.02986564,-0.04383454,-0.5605563,0.2992909,0.7559785,25.33123,-25.77502,-37.80101,994.9225
1.761040688,0.02081005,0.08860985,0.07805351,-0.5626713,0.3000599,0.739998,25.33123,-25.77502,-37.80101,994.9225
1.763500690,-0.04099793,0.02934894,-0.0438453,-0.5612668,0.3079081,0.7382959,25.33123,-25.77502,-37.80101,994.9225
1.765960216,-0.1027865,0.02933967,-0.04383152,-0.5620213,0.2963803,0.7544407,25.33123,-25.77502,-37.80101,994.9225
1.768420219,0.02084873,-0.2668347,-0.04381774,-0.5615295,0.2958973,0.7544211,25.33123,-25.77502,-37.80101,994.9269
1.770879269,0.08264362,-0.3259839,0.07807031,-0.5582271,0.2966425,0.7422795,25.33123,-25.77502,-37.80101,994.9269
1.773338795,-0.04098531,-0.08894946,-0.04382849,-0.5651054,0.3038736,0.743539,25.33123,-25.77502,-37.80101,994.9269
1.775798798,0.02082903,-0.02968843,0.07805955,-0.567554,0.3053047,0.7440904,25.33123,-25.77502,-37.80101,994.9269
1.778257847,-0.040979,-0.2073781,-0.04383925,-0.559616,0.2993723,0.7520892,25.33123,-25.77502,-37.80101,994.9269
1.780717373,-0.1645691,-0.08884695,-0.1047626,-0.5606232,0.3003836,0.7497023,25.33123,-25.77502,-37.80101,994.9269
1.783177376,-0.1027159,-0.08881903,-0.04379257,-0.5587299,0.3024507,0.7444121,24.95737,-25.77185,-37.80182,994.9269
1.788095951,-0.2262155,0.02964707,-0.1656585,-0.5649798,0.2939892,0.750504,24.95737,-25.77185,-37.80182,994.9269
1.790555954,-0.04073999,-0.02959531,0.07814211,-0.5625855,0.2989309,0.7482152,24.95737,-25.77185,-37.80182,994.9269
1.793015480,-0.1025286,0.02964707,0.1390547,-0.5620924,0.299892,0.749213,24.95737,-25.77185,-37.80182,994.9269
1.795475006,-0.1642979,-0.1480613,-0.04380039,-0.5611711,0.3000097,0.7433828,24.95737,-25.77185,-37.80182,994.9269
1.797934532,-0.0406433,0.1481504,0.07808767,-0.5602136,0.2962008,0.738883,24.95737,-25.77185,-37.80182,994.9269
1.800394058,0.08297242,0.0888708,0.1390003,-0.5605627,0.2954459,0.7529421,24.95737,-25.77185,-37.80182,994.9269
1.802853584,-0.04065657,-0.08885622,0.1998937,-0.5610586,0.2949722,0.75196,24.95737,-25.77185,-37.80182,994.9269
1.805313110,0.02115766,0.0888708,0.1998309,-0.5616364,0.2999599,0.7458127,24.95737,-25.77185,-37.80182,994.9269
1.807772636,0.1447539,0.08884288,0.01695674,-0.567022,0.2984762,0.7443527,24.95737,-25.77185,-37.80182,994.9269
1.810232639,0.08290698,-0.08888413,-0.04398571,-0.560615,0.2989213,0.7496553,24.95737,-25.77185,-37.80182,994.9225
1.812691688,-0.04072201,-0.1480892,-0.104909,-0.5605675,0.295455,0.752457,24.95737,-25.77185,-37.80182,994.9225
1.817611217,-0.16428,0.02966572,0.1388289,-0.5606279,0.3003927,0.749217,24.95737,-25.77185,-37.80182,994.9225
1.820070267,-0.04062538,-0.08880965,0.01691096,-0.5577638,0.2995895,0.7413992,24.95737,-25.77185,-37.80182,994.9225
1.822530270,0.02118885,-0.1480147,-0.1049686,-0.5626024,0.2994455,0.7467752,24.95737,-25.77185,-37.80182,994.9225
1.824989796,-0.04061925,-0.1479683,-0.1049356,-0.5636346,0.3024337,0.7429952,24.95737,-25.77185,-37.80182,994.9225
1.827448845,0.08299647,0.02977726,0.199783,-0.5625827,0.2984435,0.7481995,24.95737,-25.77185,-37.80182,994.9225
1.829908848,0.02116892,-0.02946512,0.01690884,-0.5626221,0.3004476,0.7453508,24.95737,-25.77185,-37.80182,994.9225
1.832368374,-0.04063917,-0.08868884,0.01690352,-0.5621524,0.2980784,0.7418724,24.58071,-25.40204,-37.79139,994.9225
1.834827423,0.02117505,-0.02942793,0.07783534,-0.5606155,0.2965115,0.7481214,24.58071,-25.40204,-37.79139,994.9225
1.837287426,0.2065728,-0.08865166,-0.04406341,-0.5586561,0.2984517,0.7496241,24.58071,-25.40204,-37.79139,994.9225
1.839746952,0.02110354,-0.02939075,-0.04404957,-0.5596905,0.3009615,0.7453433,24.58071,-25.40204,-37.79139,994.9225
1.842206955,0.02109694,0.2667836,0.0169014,-0.5626763,0.3034446,0.7415631,24.58071,-25.40204,-37.79139,994.9225
1.844666004,0.08289177,0.02976765,0.07783322,-0.5621744,0.3053534,0.7440478,24.58071,-25.40204,-37.79139,994.9225
1.847125530,-0.2261416,0.08899138,0.1387459,-0.5602041,0.3053439,0.745488,24.58071,-25.40204,-37.79139,994.9225
1.849585533,-0.1024677,0.1481965,0.1387023,-0.5635759,0.3028032,0.7493185,24.58071,-25.40204,-37.79139,994.9225
1.852044582,-0.164237,0.0296838,-0.1050898,-0.5625877,0.3018281,0.7497647,24.58071,-25.40204,-37.79139,994.9225
1.854504108,0.08302047,0.02967442,-0.165994,-0.5650735,0.302366,0.745918,24.58071,-25.40204,-37.79139,994.9225
1.859429359,0.2065518,-0.08879169,-0.04409195,-0.5581465,0.2931126,0.7484777,24.58071,-25.40204,-37.79139,994.9225
1.861882687,0.2064869,0.02970222,0.1387333,-0.562574,0.2993911,0.7496864,24.58071,-25.40204,-37.79139,994.9225
1.864342689,-0.04078386,0.08892595,0.07775259,-0.5587775,0.3059171,0.7416104,24.58071,-25.40204,-37.79139,994.9225
1.866801739,0.02103043,-0.02956807,-0.04414613,-0.5562474,0.2999904,0.7467405,24.58071,-25.40204,-37.79139,994.9225
1.869261742,0.08282533,-0.0887918,0.01680487,-0.5625354,0.2983528,0.7530515,24.58071,-25.40204,-37.79139,994.9225
1.871721268,0.2682037,0.2666343,0.199611,-0.5631287,0.3019235,0.7444313,24.58071,-25.40204,-37.79139,994.9225
1.874180317,0.1445165,0.02961848,0.01673689,-0.5641645,0.3063649,0.7411834,24.58071,-25.40204,-37.79139,994.9225
1.876641273,-0.04093331,-0.0888569,-0.04420551,-0.5665023,0.3046901,0.7513452,24.58071,-25.40204,-37.79139,994.9225
1.879099846,0.02088103,0.08887012,0.01674552,-0.5585872,0.2978372,0.7564014,24.58071,-25.40204,-37.79139,994.9225
1.881558895,0.1444774,0.08884221,0.07767739,-0.562072,0.2979242,0.7501208,25.33123,-25.77502,-37.80101,994.9225
1.884018898,0.08263059,0.0295813,0.1385901,-0.5640684,0.304252,0.7498546,25.33123,-25.77502,-37.80101,994.9225
1.886478901,0.02080315,0.02957203,0.07760946,-0.5674284,0.2954203,0.7510555,25.33123,-25.77502,-37.80101,994.9225
1.888938427,-0.1028063,-0.1481363,-0.1661635,-0.5654932,0.2949959,0.7485984,25.33123,-25.77502,-37.80101,994.9225
1.893857002,0.08266266,0.1480846,-0.1051028,-0.5630876,0.3037734,0.7498311,25.33123,-25.77502,-37.80101,994.9251
1.896317005,0.08263672,0.08880503,-0.1050698,-0.5606121,0.2950583,0.7475892,25.33123,-25.77502,-37.80101,994.9251
1.898776054,0.02080928,0.08877711,-0.1050368,-0.5601531,0.3004243,0.7477576,25.33123,-25.77502,-37.80101,994.9251
1.901235580,-0.04099869,0.1479823,-0.04406663,-0.5616156,0.300402,0.7482544,25.33123,-25.77502,-37.80101,994.9251
1.903695583,-0.04098584,0.2071688,0.01688434,-0.5620692,0.2974368,0.7501051,25.33123,-25.77502,-37.80101,994.9251
1.906154633,0.08263,0.08863776,0.07781619,-0.5596599,0.2980098,0.746705,25.33123,-25.77502,-37.80101,994.9251
1.908614159,-0.04099887,0.08860996,0.1387289,-0.5635655,0.2984437,0.747722,25.33123,-25.77502,-37.80101,994.9251
1.911074162,-0.04098602,0.08858216,0.016811,-0.5621178,0.2960833,0.7442357,25.33123,-25.77502,-37.80101,994.9251
1.913533211,-0.1027746,0.08855436,0.01680571,-0.5626173,0.3004385,0.745836,25.33123,-25.77502,-37.80101,994.9251
1.915993214,-0.04094086,0.1477596,-0.04413671,-0.5611402,0.3028435,0.7483287,25.33123,-25.77502,-37.80101,994.9251
1.918452740,-0.04092801,0.1477131,0.01681429,-0.5572688,0.301029,0.7428979,25.33123,-25.77502,-37.80101,994.9251
1.920912266,-0.1645181,-0.03003233,0.1386833,-0.563569,0.2998968,0.7482542,25.33123,-25.77502,-37.80101,994.9251
1.923371792,-0.04086345,0.02921016,0.01676546,-0.5675137,0.2989591,0.7443722,25.33123,-25.77502,-37.80101,994.9251
1.925831318,0.08275233,0.029201,0.1386345,-0.5635759,0.3028032,0.7493185,25.33123,-25.77502,-37.80101,994.9251
1.928290844,0.02092484,0.08842485,-0.04422051,-0.5640262,0.2983848,0.7506371,25.33123,-25.77502,-37.80101,994.9251
1.930750847,-0.1026847,0.14763,-0.04420662,-0.5625757,0.3046983,0.7527698,24.95457,-25.40521,-37.79058,994.9234
1.935669422,-0.04085755,-0.08933901,0.3214057,-0.5601243,0.2936186,0.746568,24.95457,-25.40521,-37.79058,994.9234
1.938129425,0.1445597,-0.03007788,0.07755616,-0.5625263,0.2925491,0.7504377,24.95457,-25.40521,-37.79058,994.9234
1.940588474,0.08271278,-0.03006838,0.0775318,-0.5596406,0.303759,0.7522301,24.95457,-25.40521,-37.79058,994.9234
1.943048477,0.08268677,-0.03005889,0.1993817,-0.5620918,0.3023019,0.7507468,24.95457,-25.40521,-37.79058,994.9234
1.945508003,0.08266077,-0.0300494,0.07744481,-0.55967,0.2989937,0.7462511,24.95457,-25.40521,-37.79058,994.9234
1.947967052,-0.04096815,0.02919309,-0.0444538,-0.5611285,0.299928,0.7477496,24.95457,-25.40521,-37.79058,994.9234
1.950427055,0.08264763,0.08841693,0.1993087,-0.5596837,0.3014308,0.7463294,24.95457,-25.40521,-37.79058,994.9234
1.952886581,0.08262169,0.02915614,-0.04450246,-0.5572742,0.3020038,0.7429292,24.95457,-25.40521,-37.79058,994.9234
1.955345631,-0.2264116,0.08837998,-0.1054256,-0.5635931,0.2975323,0.7442943,24.95457,-25.40521,-37.79058,994.9234
1.957805634,-0.04093608,-0.08934692,0.0164818,-0.5616783,0.2990758,0.7409293,24.95457,-25.40521,-37.79058,994.9234
1.960265160,-0.04092323,-0.267018,-0.1053976,-0.5631143,0.2985207,0.7438365,24.95457,-25.40521,-37.79058,994.9234
1.962725162,-0.04091038,-0.08923504,-0.1053645,-0.5596884,0.3014399,0.7458441,24.95457,-25.40521,-37.79058,994.9234
1.965184212,0.02090397,-0.02997402,0.1384171,-0.5635978,0.3067026,0.7494437,24.95457,-25.40521,-37.79058,994.9234
1.967643738,0.1445004,-0.08919764,-0.1053749,-0.5586583,0.301349,0.7511737,24.95457,-25.40521,-37.79058,994.9234
1.970103741,-0.04094947,0.0292965,-0.1053418,-0.5601023,0.2988804,0.7520775,24.95457,-25.40521,-37.79058,994.9234
1.972562790,-0.226341,-0.02994576,0.01656554,-0.5591775,0.297545,0.745715,24.95457,-25.40521,-37.79058,994.9234
1.975027084,-0.102667,0.02929673,-0.0443768,-0.5596613,0.2999413,0.747738,24.95457,-25.40521,-37.79058,994.9234
1.979941368,0.02101982,-0.02993616,0.1993614,-0.5650942,0.2985483,0.741426,24.95467,-26.12361,-38.25999,994.9234
1.982400894,0.1446161,0.02930633,0.07742446,-0.5660155,0.2984306,0.7472562,24.95467,-26.12361,-38.25999,994.9234
1.984860897,0.08276925,0.1477632,-0.04447414,-0.5615994,0.3008531,0.7502108,24.95467,-26.12361,-38.25999,994.9234
1.987325191,0.02094176,0.1477167,0.07741411,-0.5616805,0.301973,0.7424788,24.95467,-26.12361,-38.25999,994.9234
1.989779949,-0.04086628,-0.1484948,0.1992641,-0.56558,0.3004663,0.7429481,24.95467,-26.12361,-38.25999,994.9234
1.992239475,0.0827495,0.02925096,0.01639007,-0.5591914,0.3033577,0.7478437,24.95467,-26.12361,-38.25999,994.9234
1.994698524,0.08272351,0.0292418,0.01638492,-0.5610698,0.3002976,0.7540729,24.95467,-26.12361,-38.25999,994.9234
1.997158527,-0.1027069,-0.2076994,0.01637978,-0.5650098,0.2993508,0.7506762,24.95467,-26.12361,-38.25999,994.9234
1.999618053,-0.04087317,0.147764,0.01637463,-0.5606879,0.2985791,0.7418764,24.95467,-26.12361,-38.25999,994.9234
2.002077103,0.08274261,0.02925152,0.1382438,-0.560172,0.3004606,0.7458167,24.95467,-26.12361,-38.25999,994.9234
2.004537106,0.08271661,-0.2076897,0.01632603,-0.5625708,0.3013135,0.7512046,24.95467,-26.12361,-38.25999,994.9234
2.006996632,-0.1027138,-0.08915842,-0.04461625,-0.5567251,0.3004462,0.7482157,24.95467,-26.12361,-38.25999,994.9234
2.009456635,-0.04088007,-0.1483634,-0.04460224,-0.5591723,0.2999457,0.7477341,24.95467,-26.12361,-38.25999,994.9234
2.011915684,-0.1026687,-0.3260158,0.01634891,-0.5616779,0.3048613,0.7445136,24.95467,-26.12361,-38.25999,994.9218
2.016835213,-0.1025848,-0.02973884,0.01637693,-0.5625409,0.2993276,0.7530828,24.95467,-26.12361,-38.25999,994.9218
2.019294262,0.02105042,-0.2666616,0.1382461,-0.5635914,0.3013863,0.7468455,24.95467,-26.12361,-38.25999,994.9218
2.021753788,0.08284525,-0.1481117,0.01632833,-0.563565,0.3008535,0.7492559,24.95467,-26.12361,-38.25999,994.9218
2.024213791,0.02101776,-0.1480651,-0.04461395,-0.5611272,0.3013722,0.748767,24.95467,-26.12361,-38.25999,994.9218
2.026672840,-0.1025918,-0.02955259,-0.04459994,-0.5586845,0.2985061,0.7467129,24.95467,-26.12361,-38.25999,994.9218
2.029132366,-0.1025595,0.08892278,0.07728834,-0.5620774,0.298899,0.7501521,24.58351,-25.76868,-37.80262,994.9218
2.031592369,-0.04072584,0.02966187,0.07726407,-0.563068,0.3027714,0.7512555,24.58351,-25.76868,-37.80262,994.9218
2.034051418,-0.1025145,-0.0295805,0.01630266,-0.563525,0.2978837,0.751588,24.58351,-25.76868,-37.80262,994.9218
2.036511421,0.02112058,0.02966187,0.01629755,-0.5625504,0.2993457,0.7521124,24.58351,-25.76868,-37.80262,994.9218
2.038970947,-0.102489,-0.0888135,0.1991038,-0.5630577,0.3017874,0.7517093,24.58351,-25.76868,-37.80262,994.9218
2.041430473,-0.1024568,-0.1480186,0.07716702,-0.5650422,0.2984486,0.7467632,24.58351,-25.76868,-37.80262,994.9218
2.043891430,-0.04062314,0.08896008,-0.1056687,-0.5655907,0.2990403,0.7409602,24.58351,-25.76868,-37.80262,994.9218
2.046349525,0.08299258,-0.08876694,0.1990502,-0.5591971,0.298547,0.7442907,24.58351,-25.76868,-37.80262,994.9218
2.048809052,0.144768,0.1481931,0.1380506,-0.5606252,0.2999052,0.7492014,24.58351,-25.76868,-37.80262,994.9218
2.051268578,0.1447225,0.08891352,0.07707006,-0.5646153,0.2995366,0.7409682,24.58351,-25.76868,-37.80262,994.9218
2.053728104,-0.04072737,0.02965261,0.1989201,-0.55962,0.2984156,0.7510875,24.58351,-25.76868,-37.80262,994.9218
2.056193352,0.02108691,0.08887634,-0.04489096,-0.5664815,0.2959709,0.7481523,24.58351,-25.76868,-37.80262,994.9218
2.058647633,0.02108031,-0.02961768,0.07699744,-0.5650868,0.2980518,0.7418956,24.58351,-25.76868,-37.80262,994.9218
2.061106682,0.02107371,0.02962469,-0.04490104,-0.5592299,0.304396,0.7444785,24.58351,-25.76868,-37.80262,994.9218
2.066026211,-0.04074099,0.08885769,0.07700143,-0.563571,0.2994185,0.7477533,24.58351,-25.76868,-37.80262,994.9218
2.068485260,-0.1025296,-0.02963633,0.01604011,-0.5635601,0.2974688,0.7476907,24.58351,-25.76868,-37.80262,994.9218
2.070945263,0.08290698,0.02960604,0.01603508,-0.5651017,0.2990448,0.7409564,24.58351,-25.76868,-37.80262,994.9218
2.073404789,-0.1025235,0.08882977,0.1379043,-0.5611399,0.2994679,0.7462783,24.58351,-25.76868,-37.80262,994.9218
2.075863838,-0.1024913,0.325734,0.07692385,-0.5592285,0.3024645,0.7434456,24.58351,-25.76868,-37.80262,994.9218
2.078323841,0.0829453,0.02946647,-0.04497461,-0.5630454,0.2979062,0.7506137,24.95187,-25.75697,-38.24876,994.9218
2.080783367,-0.04068369,-0.02977579,-0.288709,-0.5615802,0.2974412,0.7501013,24.95187,-25.75697,-38.24876,994.9218
2.083243370,-0.1642738,0.08869958,0.07700448,-0.5645431,0.3008447,0.7492636,24.95187,-25.75697,-38.24876,994.9218
2.085702419,0.02118219,0.08867167,0.1379174,-0.565517,0.2984169,0.7482228,24.95187,-25.75697,-38.24876,994.9218
2.088161945,0.02117553,-0.08905523,0.01599982,-0.5616375,0.2951401,0.7427449,24.95187,-25.75697,-38.24876,994.9218
2.090621948,0.08297036,0.02943878,0.07693193,-0.5596698,0.295618,0.7442007,24.95187,-25.75697,-38.24876,994.9218
2.093080997,0.0829443,-0.02980348,0.1378449,-0.5620292,0.2944669,0.7524373,24.95187,-25.75697,-38.24876,994.92
2.095540524,0.08291824,-0.1482602,0.01592733,-0.5639874,0.2939709,0.7519519,24.95187,-25.75697,-38.24876,994.92
2.098000526,0.2064951,-0.1482136,0.01592233,-0.561577,0.2993636,0.7516195,24.95187,-25.75697,-38.24876,994.92
2.102919102,-0.04078227,-0.148195,0.1377292,-0.5591826,0.3043053,0.7493306,24.95187,-25.75697,-38.24876,994.92
2.105379105,0.02103202,0.1480167,0.07674876,-0.5616907,0.3029569,0.742025,24.95187,-25.75697,-38.24876,994.92
2.107838154,0.02102542,0.0887371,0.07672463,-0.5596093,0.2998415,0.7530752,24.95187,-25.75697,-38.24876,994.92
2.110298157,-0.1025841,-0.0297568,0.0157634,-0.5581375,0.2998458,0.7535489,24.95187,-25.75697,-38.24876,994.92
2.112757683,0.02105107,-0.02974742,-0.04517871,-0.5616379,0.3018914,0.7468457,24.95187,-25.75697,-38.24876,994.92
2.115216732,-0.16436,0.08872795,-0.1061017,-0.5601944,0.30195,0.744408,24.95187,-25.75697,-38.24876,994.92
2.117676735,-0.1025069,0.08870003,0.07674309,-0.5562257,0.2994668,0.7486657,24.95187,-25.75697,-38.24876,994.92
2.120136261,-0.04067319,0.08867212,0.07671899,-0.5659466,0.2978162,0.7540334,24.95187,-25.75697,-38.24876,994.92
2.122595310,0.02114104,-0.02982179,-0.04517941,-0.5616068,0.3013496,0.7497413,24.95187,-25.75697,-38.24876,994.92
2.125055313,0.02113437,0.02942059,-0.04516522,-0.5605903,0.3036958,0.755149,24.95187,-25.75697,-38.24876,994.92
2.127514839,0.02112771,0.08864443,-0.1670253,-0.5606127,0.3051852,0.7537404,24.94906,-25.39032,-38.23752,994.92
2.129974842,0.08292254,0.2663156,-0.04509854,-0.5610704,0.3012634,0.7545894,24.94906,-25.39032,-38.23752,994.92
2.132433891,-0.1025079,0.02929989,0.01585278,-0.5635123,0.299788,0.7540767,24.94906,-25.39032,-38.23752,994.92
2.134893417,0.02112718,0.08852373,0.07678495,-0.5600367,0.2963436,0.7573364,24.94906,-25.39032,-38.23752,994.9244
2.137353420,-0.1024824,-0.08920317,0.137698,-0.5626153,0.3009168,0.7463369,24.94906,-25.39032,-38.23752,994.9244
2.139812470,-0.1024502,-0.02994215,0.0157804,-0.5616541,0.3014403,0.7448893,24.94906,-25.39032,-38.23752,994.9244
2.142271996,0.08298639,0.2069993,0.01577543,-0.5616401,0.3047887,0.7483953,24.94906,-25.39032,-38.23752,994.9244
2.147191048,0.08287603,0.02924463,-0.04517164,-0.5635641,0.2965121,0.746689,24.94906,-25.39032,-38.23752,994.9244
2.149650574,-0.1025544,0.2069346,-0.04515746,-0.5616434,0.3028663,0.746877,24.94906,-25.39032,-38.23752,994.9244
2.152110577,0.02108078,0.02917049,-0.2279547,-0.560626,0.300871,0.7497179,24.94906,-25.39032,-38.23752,994.9244
2.154569626,0.02107418,0.02916134,0.01586548,-0.5616268,0.2965661,0.7447327,24.94906,-25.39032,-38.23752,994.9244
2.157034397,-0.04073392,-0.08931392,0.01586051,-0.5655392,0.2965307,0.7447637,24.94906,-25.39032,-38.23752,994.9244
2.159489155,-0.1025226,0.02918021,0.01585554,-0.5664988,0.3032369,0.7508129,24.94906,-25.39032,-38.23752,994.9244
2.161948204,-0.1024904,0.02917106,0.01585057,-0.5601364,0.3032854,0.7512479,24.94906,-25.39032,-38.23752,994.9244
2.164408207,0.1447476,0.0883949,0.07678273,-0.5611663,0.3000006,0.7438679,24.94906,-25.39032,-38.23752,994.9244
2.166867733,0.02109923,0.1476002,-0.04511566,-0.5646275,0.3000422,0.7400135,24.94906,-25.39032,-38.23752,994.9244
2.169327259,-0.04070886,-0.08937823,-0.04510148,-0.5547925,0.3005093,0.7457741,24.94906,-25.39032,-38.23752,994.9244
2.171786785,-0.04069607,-0.0893502,0.01584984,-0.5615808,0.2950313,0.7485674,24.94906,-25.39032,-38.23752,994.9244
2.174246311,-0.1024848,-0.03008906,-0.04509227,-0.5635453,0.2998515,0.7506802,24.94906,-25.39032,-38.23752,994.9244
2.176706314,-0.04065108,0.02915343,0.01585906,-0.5630971,0.3037916,0.7488607,24.95457,-25.40521,-37.79058,994.9244
2.179168224,-0.04063829,-0.03008872,-0.04508308,-0.561631,0.298985,0.7457814,24.95457,-25.40521,-37.79058,994.9244
2.181624889,-0.0406255,-0.1485453,-0.04506893,-0.5626178,0.2980286,0.7443022,24.95457,-25.40521,-37.79058,994.9244
2.186544418,-0.1640864,0.02922847,-0.1668766,-0.5624969,0.2973144,0.7564167,24.95457,-25.40521,-37.79058,994.9244
2.189004898,0.08317105,0.02921931,0.01598724,-0.5674816,0.3032371,0.7503355,24.95457,-25.40521,-37.79058,994.9244
2.191463471,0.02134343,-0.03002295,0.1987936,-0.5621647,0.3019595,0.7429679,24.95457,-25.40521,-37.79058,994.9244
2.193922997,0.02133671,0.08845253,-0.04501736,-0.5611561,0.2990167,0.7443219,24.95457,-25.40521,-37.79058,994.9244
2.196382046,-0.1022729,0.2068908,-0.1059404,-0.5601282,0.3018231,0.7512009,24.95457,-25.40521,-37.79058,994.9244
2.198842049,-0.1640423,0.1475929,0.01596718,-0.5605954,0.2979193,0.7510796,24.95457,-25.40521,-37.79058,994.9244
2.201301575,-0.04038784,-0.08938558,0.1378365,-0.5640797,0.3004161,0.7463329,24.95457,-25.40521,-37.79058,994.9244
2.203761578,-0.1021766,-0.08935755,0.07685601,-0.5582286,0.298574,0.7433126,24.95457,-25.40521,-37.79058,994.9244
2.206220627,0.2068628,0.1476027,0.01589472,-0.5621762,0.3014994,0.7414967,24.95457,-25.40521,-37.79058,994.9244
2.208680153,-0.2258124,0.1475563,-0.04504742,-0.5606683,0.297577,0.7433007,24.95457,-25.40521,-37.79058,994.9244
2.211140156,-0.04033708,0.206743,-0.04503326,-0.5562454,0.3004688,0.7472413,24.95457,-25.40521,-37.79058,994.9244
2.213599205,0.02147709,0.08821204,0.07685517,-0.5591499,0.2984563,0.7491428,24.95457,-25.40521,-37.79058,994.9244
2.216058731,0.1450733,0.02895124,0.01589388,-0.5602084,0.2986017,0.740902,24.95457,-25.40521,-37.79058,994.9244
2.218518734,-0.0403767,0.0881752,-0.2278597,-0.558238,0.2985922,0.7423421,24.95457,-25.40521,-37.79058,994.9244
2.220977783,-0.04036402,-0.1487846,-0.1059138,-0.560671,0.2980644,0.7433164,24.95457,-25.40521,-37.79058,994.9244
2.225897312,0.02146282,-0.03028096,0.1378439,-0.5596675,0.3018819,0.7482858,24.95457,-25.40521,-37.79058,994.9244
2.228356361,-0.04034539,-0.08950447,0.01592629,-0.5572384,0.3014529,0.74631,25.33403,-26.14167,-37.81225,994.9244
2.230816364,-0.1639356,0.02898967,0.07685842,-0.5635884,0.2975233,0.7447795,25.33403,-26.14167,-37.81225,994.9244
2.233275890,-0.1638841,0.08821362,-0.04504,-0.5640573,0.2989267,0.7477416,25.33403,-26.14167,-37.81225,994.9244
2.235734940,0.02157178,0.265885,0.01591129,-0.5572411,0.3019403,0.7463257,25.33403,-26.14167,-37.81225,994.9244
2.238194943,-0.1020379,-0.03036369,-0.105968,-0.5616481,0.3028753,0.7463918,25.33403,-26.14167,-37.81225,994.9244
2.240654469,-0.1638074,-0.08958719,-0.04499754,-0.5630672,0.3018056,0.7507389,25.33403,-26.14167,-37.81225,994.9244
2.243113518,-0.1019545,-0.148792,0.1987652,-0.5591862,0.2965973,0.7442281,25.33403,-26.14167,-37.81225,994.9244
2.245573521,-0.1637239,-0.03027927,0.1377656,-0.5586393,0.3013127,0.7531145,25.33403,-26.14167,-37.81225,994.9244
2.248033047,-0.1636725,0.08819633,0.01584804,-0.5601253,0.29796,0.7491349,25.33403,-26.14167,-37.81225,994.9244
2.250493050,0.02178337,-0.03029746,-0.04509407,-0.5591681,0.2975268,0.7466854,25.33403,-26.14167,-37.81225,994.9244
2.252952099,0.08357803,-0.03028797,0.01585725,-0.5606692,0.3019184,0.7458675,25.33403,-26.14167,-37.81225,994.9244
2.255411625,-0.0400512,-0.08951147,-0.106022,-0.5645797,0.3023614,0.7463993,25.33403,-26.14167,-37.81225,994.9226
2.260330677,0.08353812,-0.03022219,0.07685601,-0.5596091,0.2964659,0.7510249,25.33403,-26.14167,-37.81225,994.9226
2.262790203,-0.04009105,-0.2079118,-0.04504242,-0.5606548,0.2985156,0.7452728,25.33403,-26.14167,-37.81225,994.9226
2.265250206,0.021723,0.02908562,0.01590887,-0.5616561,0.3009619,0.7443883,25.33403,-26.14167,-37.81225,994.9226
2.267709255,0.02171616,0.1475426,0.01590388,-0.5611382,0.3033218,0.7488296,25.33403,-26.14167,-37.81225,994.9226
2.270169258,0.02170932,0.02903013,0.01589888,-0.557758,0.3044002,0.7449521,25.33403,-26.14167,-37.81225,994.9226
2.272628784,-0.1019004,-0.1486781,0.1987053,-0.5611198,0.3008757,0.7492365,25.33403,-26.14167,-37.81225,994.9226
2.275087833,-0.04006694,-0.03016535,0.01583147,-0.5625708,0.3013135,0.7512046,25.33403,-26.14167,-37.81225,994.9226
2.277547836,0.02174711,-0.03015586,0.0158265,-0.5597101,0.3019635,0.7439189,24.57329,-25.74104,-38.63265,994.9226
2.280012608,0.02174027,0.1475527,0.01582153,-0.5595529,0.2939472,0.7553135,24.57329,-25.74104,-38.63265,994.9226
2.282466411,-0.040068,-0.0301927,0.198628,-0.5610278,0.2978061,0.756906,24.57329,-25.74104,-38.63265,994.9226
2.284926414,-0.1018569,-0.1486493,0.07669129,-0.564008,0.2993143,0.7530944,24.57329,-25.74104,-38.63265,994.9226
2.287385940,-0.1018249,-0.03013653,-0.1061442,-0.5625873,0.2950768,0.7456639,24.57329,-25.74104,-38.63265,994.9226
2.292304993,-0.1018191,-0.03009901,0.1376328,-0.5621167,0.3009031,0.7473034,24.57329,-25.74104,-38.63265,994.9226
2.294764519,-0.03998569,-0.08932263,0.01571524,-0.5577469,0.2990749,0.7428392,24.57329,-25.74104,-38.63265,994.9226
2.297224521,0.1454313,-0.0892946,-0.1671011,-0.5616412,0.299969,0.7453275,24.57329,-25.74104,-38.63265,994.9253
2.299683571,0.0835841,-0.08926657,-0.1061115,-0.5631139,0.3043062,0.7474207,24.57329,-25.74104,-38.63265,994.9253
2.302143097,0.08355787,-0.1484715,0.01579613,-0.5630969,0.3004159,0.7468103,24.57329,-25.74104,-38.63265,994.9253
2.304603100,0.08353163,-0.08919187,-0.1670203,-0.5616188,0.2984795,0.7467361,24.57329,-25.74104,-38.63265,994.9253
2.307062626,-0.04009754,-0.08916384,-0.04509349,-0.5611186,0.2931586,0.7446193,24.57329,-25.74104,-38.63265,994.9253
2.309521675,-0.04008492,-0.02990282,-0.04507933,-0.560663,0.2999778,0.7453197,24.57329,-25.74104,-38.63265,994.9253
2.311981678,0.02172913,0.02933956,-0.2278766,-0.5616352,0.301404,0.74683,24.57329,-25.74104,-38.63265,994.9253
2.314441204,-0.1018806,0.0885634,-0.1668679,-0.5581579,0.3018136,0.752641,24.57329,-25.74104,-38.63265,994.9253
2.316901207,0.02175431,-0.02993051,-0.04494115,-0.5616121,0.2989488,0.7477222,24.57329,-25.74104,-38.63265,994.9253
2.319360256,0.02174747,0.02931187,0.01601011,-0.5596763,0.3009343,0.7467989,24.57329,-25.74104,-38.63265,994.9253
2.321819782,0.1453436,-0.08916339,-0.04493205,-0.562633,0.3023972,0.7454135,24.57329,-25.74104,-38.63265,994.9253
2.326738834,0.0216881,0.1478248,-0.1058792,-0.562645,0.2995271,0.7424083,25.32292,-25.39349,-38.23671,994.9253
2.329198360,-0.1019217,0.08854532,0.01602831,-0.5621429,0.2980602,0.7428427,25.32292,-25.39349,-38.23671,994.9253
2.331658363,0.02171327,0.08851752,-0.04491386,-0.5621153,0.2989716,0.7462705,25.32292,-25.39349,-38.23671,994.9253
2.334117412,0.1453094,0.02925672,0.01603741,-0.5644675,0.3006996,0.757027,25.32292,-25.39349,-38.23671,994.9253
2.336576938,0.08346224,-0.02998554,-0.04490476,-0.5635874,0.302343,0.7478473,25.32292,-25.39349,-38.23671,994.927
2.339036941,0.083436,0.1477229,0.1988579,-0.5606419,0.2970442,0.745711,25.32292,-25.39349,-38.23671,994.927
2.341495991,0.02160833,0.0292105,0.01598401,-0.5610905,0.2964799,0.7495809,25.32292,-25.39349,-38.23671,994.927
2.343955993,-0.1638029,-0.03003165,-0.1058953,-0.5616303,0.2980193,0.7452649,25.32292,-25.39349,-38.23671,994.927
2.346415520,-0.1637514,-0.1484883,0.01601226,-0.5640655,0.3003889,0.7477885,25.32292,-25.39349,-38.23671,994.927
2.348874569,-0.1018985,0.1477235,-0.105867,-0.5616757,0.301964,0.742964,25.32292,-25.39349,-38.23671,994.927
2.351334572,0.1453394,-0.03002205,0.07697766,-0.5567121,0.2989749,0.7486539,25.32292,-25.39349,-38.23671,994.927
2.356253147,0.02166457,0.02919264,-0.2886361,-0.5610971,0.2960106,0.7485948,25.32292,-25.39349,-38.23671,994.927
2.358713150,0.08345923,-0.08928262,0.01614027,-0.5601491,0.301381,0.7487593,25.32292,-25.39349,-38.23671,994.927
2.361172676,0.08343299,-0.0892546,-0.04480195,-0.5611116,0.2994134,0.7491896,25.32292,-25.39349,-38.23671,994.927
2.363631725,-0.1019976,0.02923954,-0.04478788,-0.5601735,0.3023922,0.7468497,25.32292,-25.39349,-38.23671,994.927
2.366091728,0.08343883,0.2069295,-0.04477382,-0.5630645,0.3013182,0.7507232,25.32292,-25.39349,-38.23671,994.927
2.368551254,0.02161116,-0.0893007,-0.04475975,-0.5615536,0.3026939,0.7560958,25.32292,-25.39349,-38.23671,994.927
2.371011257,0.08340582,-0.3854378,-0.04474568,-0.5645018,0.299319,0.7526131,25.32292,-25.39349,-38.23671,994.927
2.373470306,-0.04022335,-0.02991853,-0.04473161,-0.5635697,0.3008626,0.7487707,25.32292,-25.39349,-38.23671,994.927
2.375929832,-0.04021074,0.14779,-0.04471757,-0.5606558,0.302857,0.7478396,24.95737,-25.77185,-37.80182,994.927
2.378389835,-0.04019812,-0.08918859,0.0162336,-0.5621379,0.3038367,0.7469121,24.95737,-25.77185,-37.80182,994.9253
2.380848884,-0.1019869,-0.02992757,-0.04470865,-0.5635189,0.2993187,0.7530906,24.95737,-25.77185,-37.80182,994.9253
2.383308411,0.02164807,0.02931481,0.01624253,-0.5640464,0.296977,0.7476789,24.95737,-25.77185,-37.80182,994.9253
2.385768413,0.02164129,0.02930565,-0.1056369,-0.5621222,0.3018779,0.7473347,24.95737,-25.77185,-37.80182,994.9253
2.390687466,0.08346801,0.08848305,-0.04459509,-0.5645899,0.3033453,0.7459455,24.95737,-25.77185,-37.80182,994.9253
2.393146992,0.02164034,-0.08924386,0.01635606,-0.5631043,0.3009124,0.7463408,24.95737,-25.77185,-37.80182,994.9253
2.395606041,0.083435,-0.08921583,0.01635091,-0.5601165,0.2989076,0.7506218,24.95737,-25.77185,-37.80182,994.9253
2.398066044,0.08340876,-0.0891878,-0.04459137,-0.5581645,0.3013443,0.751655,24.95737,-25.77185,-37.80182,994.9253
2.400525570,0.02158109,0.02930633,-0.04457736,-0.562576,0.2989127,0.7491856,24.95737,-25.77185,-37.80182,994.9253
2.402984619,-0.04022718,-0.02993593,-0.04456335,-0.5601357,0.3023196,0.7507313,24.95737,-25.77185,-37.80182,994.9253
2.405444622,0.08338842,0.2070055,-0.1054865,-0.5625159,0.2973507,0.7544758,24.95737,-25.77185,-37.80182,994.9253
2.407904148,0.1451637,-0.08922464,0.01642091,-0.5630757,0.2974823,0.7472016,24.95737,-25.77185,-37.80182,994.9253
2.410363197,0.02151512,-0.2668957,0.01641576,-0.5601178,0.2974636,0.7496045,24.95737,-25.77185,-37.80182,994.9253
2.412823200,-0.0402931,0.08858635,0.01641062,-0.5601882,0.3000095,0.7438602,24.95737,-25.77185,-37.80182,994.9253
2.415282726,-0.04028042,0.08855854,0.07734261,-0.5650207,0.3013005,0.7507387,24.95737,-25.77185,-37.80182,994.9253
2.417742729,0.02153369,-0.1484014,-0.04455597,-0.5601531,0.3004243,0.7477576,24.95737,-25.77185,-37.80182,994.9236
2.420201778,-0.102076,0.08857741,0.07733232,-0.5591857,0.2990072,0.745762,24.95737,-25.77185,-37.80182,994.9236
2.422661304,0.08336048,0.0293165,0.07730802,-0.5635751,0.3018374,0.748802,24.95737,-25.77185,-37.80182,994.9236
2.425121307,0.0833343,0.08854035,0.01634658,-0.560671,0.2980644,0.7433164,24.57521,-25.38716,-38.23833,994.9236
2.427580833,-0.04029481,-0.1484196,0.07727858,-0.5630663,0.2974642,0.7481721,24.57521,-25.38716,-38.23833,994.9236
2.432499885,0.08327516,0.02935414,0.1382055,-0.56014,0.2955773,0.7461454,24.57521,-25.38716,-38.23833,994.9236
2.434959411,-0.04035394,0.3255101,0.2600363,-0.5626011,0.3008896,0.7477925,24.57521,-25.38716,-38.23833,994.9236
2.437419414,-0.1021428,0.02924271,0.1380804,-0.5626235,0.3023791,0.7463839,24.57521,-25.38716,-38.23833,994.9236
2.439878464,-0.04030919,-0.02999956,0.1989741,-0.5581782,0.3037814,0.7517332,24.57521,-25.38716,-38.23833,994.9236
2.442337990,0.08330641,0.02924293,-0.04483695,-0.5596018,0.2993451,0.7535448,24.57521,-25.38716,-38.23833,994.9236
2.444797993,0.08328024,-0.02999933,-0.04482285,-0.562112,0.300894,0.7477887,24.57521,-25.38716,-38.23833,994.9236
2.447257042,0.02145262,-0.02998995,-0.04480878,-0.5645058,0.2983623,0.7516114,24.57521,-25.38716,-38.23833,994.9236
2.449716568,-0.102157,0.3254176,0.1380167,-0.561579,0.2988853,0.7511187,24.57521,-25.38716,-38.23833,994.9236
2.452176571,-0.04032346,0.2660823,0.07703622,-0.5591621,0.2989618,0.7481881,24.57521,-25.38716,-38.23833,994.9236
2.454635620,0.08329214,0.08829962,0.01607487,-0.5607112,0.3044099,0.7430345,24.57521,-25.38716,-38.23833,994.9236
2.457095146,0.08326597,-0.08942717,-0.1058045,-0.5611083,0.3013359,0.7507078,24.57521,-25.38716,-38.23833,994.9236
2.459555149,0.08323979,0.02906697,0.01610307,-0.5616006,0.299409,0.7491934,24.57521,-25.38716,-38.23833,994.9236
2.462014198,-0.2257937,0.1475239,-0.04483913,-0.5626402,0.299518,0.7428935,24.57521,-25.38716,-38.23833,994.9236
2.464474201,-0.1639213,0.02901148,-0.04482503,-0.5596452,0.3003925,0.7496945,24.57521,-25.38716,-38.23833,994.9236
2.466933727,0.02153463,-0.08946367,0.0161262,-0.5630888,0.3023293,0.7488138,24.57521,-25.38716,-38.23833,994.9236
2.469392776,0.02152785,0.08826358,0.07705829,-0.564534,0.295041,0.7466498,24.57521,-25.38716,-38.23833,994.9236
2.474312305,0.02155314,0.08822674,-0.04486442,-0.5605766,0.3012587,0.7550708,24.57521,-25.38716,-38.23833,994.9236
2.476771355,0.08334786,0.147432,-0.1057875,-0.5606463,0.3028388,0.7488101,24.57521,-25.38716,-38.23833,994.9236
2.479231357,0.08332168,-0.0303134,0.07705721,-0.5650519,0.3018423,0.7478432,24.57521,-25.38716,-38.23833,994.9236
2.481690884,0.02149401,0.02892921,0.01609586,-0.56502,0.3003347,0.7502223,24.57521,-25.38716,-38.23833,994.9236
2.484149933,0.02148723,-0.1487789,-0.04484634,-0.56212,0.2989806,0.7457852,24.57521,-25.38716,-38.23833,994.9236
2.486609936,0.02148051,-0.08949915,-0.1057694,-0.5644985,0.3012414,0.7541313,24.57521,-25.38716,-38.23833,994.9236
2.489069462,-0.04032771,-0.03023802,0.01613815,-0.5591208,0.2974361,0.7515375,24.57521,-25.38716,-38.23833,994.9236
2.491529465,-0.1021165,0.02900447,-0.04480407,-0.5586512,0.2950669,0.748059,24.57521,-25.38716,-38.23833,994.9236
2.493988514,0.02151848,0.1474614,-0.1057271,-0.5601929,0.3000185,0.7433751,24.57521,-25.38716,-38.23833,994.9236
2.496448040,0.08331319,0.08818209,0.01618035,-0.5646426,0.3044108,0.7411247,24.57521,-25.38716,-38.23833,994.9236
2.498908043,0.08328702,0.1473874,0.07711241,-0.5605927,0.2974319,0.7510639,24.57521,-25.38716,-38.23833,994.9258
2.501367092,-0.1021436,-0.03035804,0.07708819,-0.5581813,0.2984833,0.7481647,24.57521,-25.38716,-38.23833,994.9258
2.503826618,-0.1021115,-0.1488145,-0.04481032,-0.5591797,0.3004422,0.7472646,24.57521,-25.38716,-38.23833,994.9258
2.508745670,-0.04026527,-0.1487768,0.07711124,-0.5587325,0.2995625,0.7423773,24.57521,-25.38716,-38.23833,994.9258
2.511205673,0.08335034,-0.14873,0.1989613,-0.5635533,0.2979381,0.7486768,24.57521,-25.38716,-38.23833,994.9258
2.513665199,-0.1638817,-0.03021722,0.1379616,-0.5601084,0.2974454,0.7505748,24.57521,-25.38716,-38.23833,994.9258
2.516124248,-0.2256317,0.02902527,0.01604403,-0.5620924,0.299892,0.749213,24.57521,-25.38716,-38.23833,994.9258
2.518584251,0.02164512,0.02901611,0.1379133,-0.5600976,0.2988714,0.7525626,24.57521,-25.38716,-38.23833,994.9258
2.521043777,-0.1019646,0.1474731,0.01599567,-0.5605791,0.2983705,0.753036,24.57521,-25.38716,-38.23833,994.9258
2.523502827,0.02167035,0.02896062,0.07692777,-0.5635682,0.2989311,0.7477377,25.33123,-25.77502,-37.80101,994.9258
2.525962829,-0.04013792,-0.08951452,0.01596645,-0.5621613,0.3005064,0.7424357,25.33123,-25.77502,-37.80101,994.9258
2.528422356,-0.1637282,-0.08948638,0.01596143,-0.5621085,0.2994409,0.7472565,25.33123,-25.77502,-37.80101,994.9258
2.530882358,0.1453305,-0.1486914,-0.1059179,-0.5655297,0.2965125,0.7457341,25.33123,-25.77502,-37.80101,994.9258
2.533341408,-0.04011953,-0.2078777,0.01598968,-0.5674486,0.2940124,0.7480974,25.33123,-25.77502,-37.80101,994.9258
2.535800934,-0.04010691,0.02911975,-0.04495249,-0.5625921,0.2984616,0.747229,25.33123,-25.77502,-37.80101,994.9258
2.538260937,-0.04009429,0.2068097,0.07693592,-0.5640742,0.2994413,0.7463016,25.33123,-25.77502,-37.80101,994.924
2.540719986,-0.1636847,0.1475117,-0.1058997,-0.5655297,0.2965125,0.7457341,25.33123,-25.77502,-37.80101,994.924
2.543179512,-0.1018318,0.1474654,-0.1058664,-0.5620713,0.2969584,0.7496043,25.33123,-25.77502,-37.80101,994.924
2.545639515,0.08360462,-0.148746,0.0769783,-0.5625354,0.2983528,0.7530515,25.33123,-25.77502,-37.80101,994.924
2.550558090,0.02175065,-0.1486712,0.07687249,-0.5597139,0.2976312,0.7408668,25.33123,-25.77502,-37.80101,994.924
2.553018093,0.02174381,-0.03015845,0.07684834,-0.563067,0.29843,0.7486886,25.33123,-25.77502,-37.80101,994.924
2.555477619,-0.1636675,-0.03014896,0.07682418,-0.5621593,0.3009847,0.7429366,25.33123,-25.77502,-37.80101,994.924
2.557937145,-0.1018145,-0.1486056,-0.04507424,-0.56018,0.2985472,0.7438132,25.33123,-25.77502,-37.80101,994.924
2.560396671,-0.0399811,-0.03009279,0.07681421,-0.5635697,0.3008626,0.7487707,25.33123,-25.77502,-37.80101,994.924
2.562856197,-0.10177,0.08838269,0.1377272,-0.5674706,0.3012874,0.7502729,25.33123,-25.77502,-37.80101,994.924
2.565316200,-0.03993658,-0.1485772,0.01580967,-0.5586628,0.2979823,0.7486381,25.33123,-25.77502,-37.80101,994.924
2.567775249,0.02187741,-0.03006443,0.0158047,-0.5621426,0.3038458,0.7464269,25.33123,-25.77502,-37.80101,994.924
2.570234775,0.02187051,-0.08928804,0.1986112,-0.5620649,0.304179,0.7546911,25.33123,-25.77502,-37.80101,994.924
2.572694778,0.02186361,-0.03002702,-0.04519978,-0.5631259,0.3014361,0.7444156,24.95187,-25.75697,-38.24876,994.924
2.575153828,-0.1017462,-0.03001764,-0.04518557,-0.5621063,0.2965435,0.745707,24.95187,-25.75697,-38.24876,994.924
2.577613354,-0.1017143,-0.1484742,0.01576578,-0.5635784,0.299915,0.7472838,24.95187,-25.75697,-38.24876,994.924
2.580073357,-0.1634838,-0.1484276,-0.04517633,-0.5634831,0.2987678,0.7564714,24.95187,-25.75697,-38.24876,994.924
2.582532406,-0.03982952,-0.1483809,0.07671216,-0.5654777,0.2964128,0.7510714,24.95187,-25.75697,-38.24876,994.924
2.584992409,0.08378591,-0.08910123,-0.2889348,-0.563581,0.2970268,0.745249,24.95187,-25.75697,-38.24876,994.924
2.587451935,-0.03984337,-0.02984021,-0.1669697,-0.5635939,0.2984981,0.7448108,24.95187,-25.75697,-38.24876,994.924
2.589910984,0.08377206,-0.2075299,0.2596427,-0.5650538,0.301364,0.7473423,24.95187,-25.75697,-38.24876,994.924
2.594830513,-0.163467,-0.02966334,-0.04516784,-0.5645779,0.3062153,0.7489506,24.95187,-25.75697,-38.24876,994.924
2.597289562,-0.03981277,0.148045,0.01578348,-0.5639716,0.3011733,0.7580091,24.95187,-25.75697,-38.24876,994.924
2.599749565,-0.03980028,-0.02970052,-0.04515862,-0.5619799,0.2948546,0.7577901,24.95187,-25.75697,-38.24876,994.924
2.602209091,-0.2251922,-0.08892425,-0.1060816,-0.5601795,0.3009571,0.7453471,24.95187,-25.75697,-38.24876,994.924
2.604669094,-0.16332,0.1480358,-0.1669854,-0.5640875,0.2951271,0.7422791,24.95187,-25.75697,-38.24876,994.924
2.607128143,-0.03966574,0.0887562,0.1377528,-0.5655603,0.2994643,0.7443724,24.95187,-25.75697,-38.24876,994.924
2.609587669,0.08394969,0.1479614,0.01583522,-0.5576695,0.3027837,0.7531537,24.95187,-25.75697,-38.24876,994.924
2.612047672,0.08392334,0.2071479,-0.106044,-0.5635284,0.2993369,0.7521202,24.95187,-25.75697,-38.24876,994.924
2.614506721,0.08389699,0.02938375,-0.1669479,-0.5615783,0.2979195,0.7506021,24.95187,-25.75697,-38.24876,994.924
2.616966247,0.02206914,-0.02985852,0.01591603,-0.5567912,0.3005732,0.7414228,24.95187,-25.75697,-38.24876,994.924
2.619426250,-0.1633422,0.02938386,0.01591103,-0.562566,0.3013045,0.7516898,24.95187,-25.75697,-38.24876,994.924
2.621885300,-0.1014894,-0.0890914,0.07684316,-0.5636057,0.3047892,0.7474402,24.58071,-25.40204,-37.79139,994.924
2.624344826,0.08394692,0.2663347,-0.04505527,-0.561619,0.3018551,0.7487865,24.58071,-25.40204,-37.79139,994.924
2.626804829,0.145722,0.207018,0.07683317,-0.5580994,0.2963976,0.7553801,24.58071,-25.40204,-37.79139,994.924
2.631723881,0.1456499,0.2069438,0.01582862,-0.5620961,0.2955596,0.7461609,24.58071,-25.40204,-37.79139,994.924
2.634183407,-0.03980028,0.2068789,0.07676079,-0.5591728,0.2975359,0.7462003,24.58071,-25.40204,-37.79139,994.924
2.636642456,0.02201372,0.02911478,0.07673667,-0.5645344,0.3017923,0.7507505,24.58071,-25.40204,-37.79139,994.924
2.639108181,0.08380825,-0.03012738,0.07671257,-0.5669829,0.2998477,0.7492517,24.58071,-25.40204,-37.79139,994.924
2.641561985,0.1455834,0.08834811,-0.106123,-0.564022,0.2959659,0.7495885,24.58071,-25.40204,-37.79139,994.924
2.644021034,0.1455376,0.02908731,-0.04515249,-0.558177,0.3052255,0.7527506,24.58071,-25.40204,-37.79139,994.924
2.646481037,-0.101714,0.08831116,-0.1060754,-0.5591262,0.298411,0.7515688,24.58071,-25.40204,-37.79139,994.924
2.648940563,-0.03988052,0.08828346,0.01583217,-0.5640693,0.2960566,0.7447364,24.58071,-25.40204,-37.79139,994.924
2.651400566,0.02193348,-0.03021033,0.07676434,-0.5626601,0.3038957,0.7435196,24.58071,-25.40204,-37.79139,994.924
2.653859615,-0.03987486,-0.2078999,0.07674021,-0.5601658,0.29852,0.7452689,24.58071,-25.40204,-37.79139,994.924
2.656319141,0.2073436,-0.2078346,0.07671612,-0.5660046,0.2964809,0.7471936,24.58071,-25.40204,-37.79139,994.924
2.658779144,0.08367548,-0.2077693,-0.1670566,-0.5606118,0.3008438,0.7511735,24.58071,-25.40204,-37.79139,994.924
2.661238193,0.08364919,0.08846112,0.1376816,-0.5606658,0.3004653,0.7453354,24.58071,-25.40204,-37.79139,994.924
2.666157722,0.08357726,-0.1484893,-0.1061151,-0.5586106,0.2945069,0.751925,24.58071,-25.40204,-37.79139,994.924
2.668616772,0.02174953,-0.08920961,0.0767296,-0.5635859,0.3004115,0.7468142,24.58071,-25.40204,-37.79139,994.924
2.671076298,0.1453456,0.2069835,0.07670551,-0.5611457,0.3038183,0.74836,24.57801,-25.7538,-38.24956,994.924
2.673536301,-0.1019059,0.2069185,-0.04519286,-0.5635582,0.3013228,0.7502419,24.57801,-25.7538,-38.24956,994.924
2.675995827,0.02172901,-0.03007855,-0.1061158,-0.5634789,0.2963489,0.7554227,24.57801,-25.7538,-38.24956,994.924
2.678455353,-0.04007926,-0.03006906,-0.1060825,-0.5615613,0.2974049,0.7520421,24.57801,-25.7538,-38.24956,994.924
2.680914879,0.02173479,-0.2077587,0.1376994,-0.5582042,0.2975629,0.7452221,24.57801,-25.7538,-38.24956,994.924
2.683374405,-0.04007348,0.02923875,0.1985933,-0.5635926,0.2999422,0.7458282,24.57801,-25.7538,-38.24956,994.924
2.685834408,0.02174057,0.0292296,0.01571948,-0.5591355,0.2950534,0.748548,24.57801,-25.7538,-38.24956,994.924
2.688293457,0.1453367,-0.03001267,0.01571454,-0.5615546,0.2978742,0.7530282,24.57801,-25.7538,-38.24956,994.924
2.690752983,-0.0401134,0.08846282,0.1375839,-0.5669299,0.2954066,0.7520221,24.57801,-25.7538,-38.24956,994.924
2.693212986,0.02170066,0.147668,0.07660351,-0.5586432,0.2969803,0.7500624,24.57801,-25.7538,-38.24956,994.924
2.695672035,-0.04010762,-0.03007742,0.07657944,-0.5635837,0.2975142,0.7452647,24.57801,-25.7538,-38.24956,994.924
2.698132038,0.08350793,0.1476311,-0.04531889,-0.560605,0.3013131,0.7521596,24.57801,-25.7538,-38.24956,994.924
2.700591564,-0.1019227,0.08835161,-0.04530465,-0.5591528,0.3023194,0.7512088,24.57801,-25.7538,-38.24956,994.924
2.703050613,0.02171221,0.1475569,-0.1671647,-0.5611463,0.3047841,0.7488766,24.57801,-25.7538,-38.24956,994.924
2.707970142,0.08348063,-0.08946785,-0.1061226,-0.5571808,0.2970027,0.7495656,24.57801,-25.7538,-38.24956,994.924
2.710429192,0.1452559,0.02902628,0.01578505,-0.5625979,0.302812,0.7493107,24.57801,-25.7538,-38.24956,994.924
2.712889194,0.02160733,-0.08944886,0.1376544,-0.5651253,0.2990901,0.7385304,24.57801,-25.7538,-38.24956,994.924
2.715348720,0.02160055,-0.03018773,-0.04520028,-0.5597011,0.2995355,0.7433555,24.57801,-25.7538,-38.24956,994.924
2.717807770,0.0833952,0.02905476,-0.04518606,-0.5571824,0.3023099,0.7526489,24.57801,-25.7538,-38.24956,994.924
2.720267773,0.08336902,0.02904561,0.07670242,-0.5610968,0.3017961,0.7521791,24.58632,-26.13533,-37.81386,994.924
2.722727299,0.02154135,-0.03019654,0.07667833,-0.5645909,0.2985255,0.7428777,24.58632,-26.13533,-37.81386,994.924
2.725187302,-0.04026686,0.147512,-0.04522004,-0.5606989,0.3005287,0.741939,24.58632,-26.13533,-37.81386,994.924
2.727646351,0.08334874,-0.03023338,0.07666845,-0.5611691,0.3004881,0.7438836,24.58632,-26.13533,-37.81386,994.924
2.730105877,-0.04028036,-0.14869,0.01570721,-0.5630969,0.3004159,0.7468103,24.58632,-26.13533,-37.81386,994.924
2.732565880,-0.04026769,-0.2671093,-0.04523487,-0.5630724,0.2994048,0.7487199,24.58632,-26.13533,-37.81386,994.924
2.735024929,0.1451494,0.08837274,0.1375908,-0.559131,0.29842,0.7510836,24.58632,-26.13533,-37.81386,994.924
2.737484932,0.02150079,-0.08935416,0.01567326,-0.5630808,0.3042427,0.7508172,24.58632,-26.13533,-37.81386,994.924
2.742403507,-0.1020962,-0.03010217,0.137576,-0.5640892,0.3004343,0.7453625,24.58632,-26.13533,-37.81386,994.9284
2.744863510,0.08334025,0.2068394,0.0156585,-0.5606865,0.2966475,0.7408433,24.58632,-26.13533,-37.81386,994.9284
2.747323036,0.1451155,0.2067744,0.1375279,-0.5630785,0.2979697,0.7472172,24.58632,-26.13533,-37.81386,994.9284
2.749782085,0.08326844,-0.08945564,0.0765475,-0.5620551,0.2974096,0.7515607,24.58632,-26.13533,-37.81386,994.9284
2.752242088,0.1450438,0.02903849,0.07652347,-0.5650273,0.2974556,0.7477024,24.58632,-26.13533,-37.81386,994.9284
