Time (s),Gyroscope X (deg/s),Gyroscope Y (deg/s),Gyroscope Z (deg/s),Accelerometer X (g),Accelerometer Y (g),Accelerometer Z (g),Magnetometer X (uT),Magnetometer Y (uT),Magnetometer Z (uT),Barometer (hPa)
0.000000000,0.2867231,-0.3017836,0.04311021,-0.4455623,0.007651454,0.8869748,13.08286,-14.56378,-33.3965,986.1249
0.004917145,0.1012604,-0.1832803,0.1040665,-0.4397593,0.01024141,0.8816693,13.08286,-14.56378,-33.3965,986.1249
0.009834290,0.348544,-0.2425319,-0.01784608,-0.4372703,0.01162603,0.8870342,13.08286,-14.56378,-33.3965,986.1249
0.014752388,0.2867231,-0.1832803,0.1650228,-0.4421076,0.003764948,0.8877929,13.08286,-14.56378,-33.3965,986.1249
0.019669533,0.4103649,-0.2425319,0.2259791,-0.4387538,0.01453726,0.8871397,13.08286,-14.56378,-33.3965,986.1249
0.024587631,0.4103649,-0.1832803,0.1650228,-0.4382652,0.0121318,0.8856019,13.08286,-14.56378,-33.3965,986.1249
0.029504776,0.5340067,-0.2425319,-0.01784608,-0.4387079,0.01637809,0.8930248,13.08286,-14.56378,-33.3965,986.1249
0.034422398,0.4721858,-0.3017836,0.2259791,-0.4358551,0.01173907,0.8816853,12.71408,-13.91607,-32.54668,986.1276
0.041799068,0.348544,-0.1832803,0.04311021,-0.4358038,0.01260507,0.8875391,12.71408,-13.91607,-32.54668,986.1276
0.046716690,0.348544,-0.1240286,0.1040665,-0.4421184,0.0148758,0.8934901,12.71408,-13.91607,-32.54668,986.1276
0.051634312,0.348544,-0.06477699,-0.07880237,-0.4342901,0.01349341,0.8928961,12.71408,-13.91607,-32.54668,986.1276
0.056551456,0.1012604,-0.005525345,0.1650228,-0.4416819,0.0125701,0.8866152,12.71408,-13.91607,-32.54668,986.1276
0.061469555,0.2249022,-0.06477699,0.04311021,-0.4397297,0.01163111,0.8855979,12.71408,-13.91607,-32.54668,986.1276
0.066386700,0.348544,0.0537263,-0.07880237,-0.4406849,0.01254268,0.8885481,12.71408,-13.91607,-32.54668,986.1276
0.071304798,0.1012604,-0.005525345,-0.01784608,-0.4377844,0.01359848,0.885645,12.71408,-13.91607,-32.54668,986.1276
0.076221943,0.2249022,-0.1240286,0.1040665,-0.4436226,0.01396931,0.8891036,12.71408,-13.91607,-32.54668,986.1286
0.081139088,0.2867231,-0.06477699,-0.01784608,-0.4402153,0.0101735,0.8850697,12.71408,-13.91607,-32.54668,986.1286
0.086057186,0.2249022,-0.06477699,0.2259791,-0.4402438,0.01360356,0.8842088,12.70386,-13.88843,-33.37671,986.1286
0.090974331,0.1012604,0.0537263,-0.07880237,-0.4392264,0.01160833,0.8870496,12.70386,-13.88843,-33.37671,986.1286
0.095892429,0.2249022,-0.06477699,0.1040665,-0.4460864,0.007232169,0.8830814,12.70386,-13.88843,-33.37671,986.1286
0.100809574,0.1630813,-0.1832803,0.1040665,-0.4402575,0.01604065,0.884287,12.70386,-13.88843,-33.37671,986.1286
0.105726719,0.1630813,-0.1240286,0.1040665,-0.4406839,0.008201266,0.8859813,12.70386,-13.88843,-33.37671,986.1286
0.113103390,0.1012604,-0.2425319,-0.1397587,-0.4421742,0.01064321,0.8851008,12.70386,-13.88843,-33.37671,986.1286
0.118021011,0.1012604,-0.2425319,-0.01784608,-0.4382605,0.01212273,0.8860872,12.70386,-13.88843,-33.37671,986.1251
0.122938633,0.03943952,-0.2425319,-0.07880237,-0.4412112,0.01502069,0.8862043,12.70386,-13.88843,-33.37671,986.1251
0.127856255,0.1630813,-0.2425319,0.1040665,-0.4407051,0.01113484,0.88559,12.70386,-13.88843,-33.37671,986.1251
0.132773876,0.2249022,-0.1240286,0.1650228,-0.4362734,0.01497425,0.8910177,13.82777,-14.20347,-33.38365,986.1251
0.137691498,0.03943952,-0.06477699,-0.07880237,-0.4387652,0.01407705,0.8856684,13.82777,-14.20347,-33.38365,986.1251
0.142609119,0.1012604,-0.06477699,0.1650228,-0.4387057,0.0134808,0.8914753,13.82777,-14.20347,-33.38365,986.1251
0.147526741,0.2249022,-0.1832803,-0.1397587,-0.4387667,0.01600858,0.8867015,13.82777,-14.20347,-33.38365,986.1251
0.152443886,0.1012604,0.1129779,-0.01784608,-0.4406849,0.01254268,0.8885481,13.82777,-14.20347,-33.38365,986.1251
0.157361984,-0.02238137,0.0537263,0.04311021,-0.4397297,0.01163111,0.8855979,13.82777,-14.20347,-33.38365,986.1243
0.162279129,0.03943952,0.1129779,-0.200715,-0.4436737,0.009727661,0.8811995,13.82777,-14.20347,-33.38365,986.1243
0.167206764,0.1012604,0.0537263,-0.200715,-0.4392752,0.01363055,0.8832307,13.82777,-14.20347,-33.38365,986.1243
0.172114372,0.03943952,0.1722296,-0.07880237,-0.4402237,0.0150114,0.8871669,13.82777,-14.20347,-33.38365,986.1243
0.179491043,0.03943952,0.0537263,-0.01784608,-0.4460691,0.01250307,0.8881056,13.82777,-14.20347,-33.38365,986.1243
0.184408188,0.348544,-0.06477699,-0.2616712,-0.4396376,0.00856149,0.8932673,12.70619,-14.19397,-33.38607,986.1243
0.189325333,0.1012604,0.0537263,0.04311021,-0.4416975,0.01452885,0.8861926,12.70619,-14.19397,-33.38607,986.1243
0.194243431,0.1012604,0.0537263,-0.200715,-0.4412861,0.01420004,0.8779245,12.70619,-14.19397,-33.38607,986.1243
0.199160576,0.1012604,-0.005525345,-0.07880237,-0.4422025,0.01069763,0.8821896,12.70619,-14.19397,-33.38607,986.1267
0.204078674,0.1012604,0.0537263,0.04311021,-0.4402085,0.01064278,0.8860557,12.70619,-14.19397,-33.38607,986.1267
0.208995819,0.2249022,-0.1832803,0.04311021,-0.4421946,0.01261103,0.8841929,12.70619,-14.19397,-33.38607,986.1267
0.213913918,0.03943952,-0.06477699,-0.07880237,-0.4450334,0.008061672,0.8913535,12.70619,-14.19397,-33.38607,986.1267
0.218831062,0.03943952,-0.1240286,-0.01784608,-0.4378082,0.01701947,0.8852694,12.70619,-14.19397,-33.38607,986.1267
0.223748684,0.1012604,0.0537263,-0.01784608,-0.4401645,0.00862962,0.8893896,12.70619,-14.19397,-33.38607,986.1267
0.228666306,0.1630813,-0.2425319,-0.07880237,-0.4397033,0.01109834,0.8880084,12.70619,-14.19397,-33.38607,986.1267
0.233583927,0.03943952,-0.06477699,-0.01784608,-0.4353122,0.01549773,0.8895699,13.08042,-13.53983,-32.91772,986.1267
0.238501549,0.03943952,-0.06477699,0.04311021,-0.4416846,0.01305752,0.8866308,13.08042,-13.53983,-32.91772,986.1216
0.243419170,-0.02238137,-0.1832803,0.1040665,-0.4407234,0.013581,0.8851831,13.08042,-13.53983,-32.91772,986.1216
0.248336315,-0.08420226,-0.2425319,0.04311021,-0.4406687,0.01299382,0.8905047,13.08042,-13.53983,-32.91772,986.1216
0.253254414,-0.08420226,-0.1240286,-0.01784608,-0.4465662,0.01058525,0.8861061,13.08042,-13.53983,-32.91772,986.1216
0.258171558,-0.207844,-0.4795385,-0.07880237,-0.4416891,0.009690946,0.8840952,13.08042,-13.53983,-32.91772,986.1216
0.265548229,-0.08420226,-0.5387902,0.04311021,-0.4412819,0.01178108,0.8768758,13.08042,-13.53983,-32.91772,986.1216
0.270465374,-0.08420226,-0.1832803,-0.200715,-0.4416535,0.01251569,0.8895264,13.08042,-13.53983,-32.91772,986.1216
0.275383473,0.03943952,-0.2425319,0.04311021,-0.4377212,0.008173401,0.8888693,13.08042,-13.53983,-32.91772,986.1209
0.280300617,0.03943952,-0.3610352,-0.01784608,-0.4391966,0.009622378,0.8889279,12.7145,-14.57549,-32.95037,986.1209
0.285218716,0.03943952,-0.2425319,0.1040665,-0.4378031,0.01025911,0.8816538,12.7145,-14.57549,-32.95037,986.1209
0.290135861,0.03943952,-0.3017836,-0.200715,-0.4372615,0.01257366,0.8885211,12.7145,-14.57549,-32.95037,986.1209
0.295053005,0.1012604,-0.4795385,0.2869354,-0.4388241,0.01708318,0.8813955,12.7145,-14.57549,-32.95037,986.1209
0.299971104,0.1630813,-0.1240286,-0.01784608,-0.4382742,0.01455982,0.8861654,12.7145,-14.57549,-32.95037,986.1209
0.304888249,0.03943952,-0.1832803,0.1040665,-0.4367916,0.01599001,0.8886268,12.7145,-14.57549,-32.95037,986.1209
0.309806347,0.03943952,-0.3017836,0.1650228,-0.4417359,0.01219152,0.8807771,12.7145,-14.57549,-32.95037,986.1209
0.314723492,0.1012604,-0.3610352,0.3478917,-0.4446505,0.01116292,0.8822246,12.7145,-14.57549,-32.95037,986.1209
0.319641113,0.03943952,-0.4202869,0.1650228,-0.4445961,0.004790217,0.8839619,12.7145,-14.57549,-32.95037,986.1218
0.327017307,-0.08420226,-0.4795385,-0.01784608,-0.4386513,0.00710809,0.8932126,12.7145,-14.57549,-32.95037,986.1218
0.331934929,0.7812902,-0.005525345,-0.200715,-0.4294227,-0.005705096,0.8786455,12.7145,-14.57549,-32.95037,986.1218
0.336852550,1.894066,0.8239977,0.1040665,-0.4347535,0.013922,0.8958268,12.7145,-14.57549,-32.95037,986.1218
0.341770172,3.130484,1.475766,-0.2616712,-0.4297134,-0.002714794,0.9010784,12.7145,-14.57549,-32.95037,986.1218
0.346687794,5.108752,3.016308,-0.6883653,-0.4208929,-0.0132767,0.8962976,12.7145,-14.57549,-32.95037,986.1218
0.351605415,9.312573,5.386374,-1.054103,-0.4149075,-0.02405562,0.9017293,12.7145,-14.57549,-32.95037,986.1218
0.356523037,13.33093,7.815692,-1.724622,-0.4218607,-0.005108284,0.9023939,12.7145,-14.57549,-32.95037,986.1245
0.361440658,15.24738,9.119228,-2.09036,-0.4461783,0.01946296,0.8810467,12.7145,-14.57549,-32.95037,986.1245
0.366357803,14.93827,8.704467,-2.151316,-0.4447292,0.02770792,0.8842123,12.7145,-14.57549,-32.95037,986.1245
0.371275902,14.1346,8.289705,-2.212273,-0.4460455,0.01245772,0.8905316,12.7145,-14.57549,-32.95037,986.1245
0.376193046,13.14547,7.578685,-1.785578,-0.4536099,0.01813385,0.8703831,12.7145,-14.57549,-32.95037,986.1245
0.381116390,12.21815,6.630659,-1.358884,-0.4595577,0.03221587,0.8708835,12.76887,-13.53719,-32.9184,986.1245
0.386028290,9.992603,5.860387,-1.358884,-0.4517228,0.0438396,0.8789605,12.76887,-13.53719,-32.9184,986.1245
0.390945434,8.32344,4.853109,-1.236972,-0.4531481,0.03217363,0.8761705,12.76887,-13.53719,-32.9184,986.1245
0.395863533,6.777916,4.023586,-0.8102779,-0.4516687,0.03168135,0.8771136,12.76887,-13.53719,-32.9184,986.1245
0.403239250,4.92329,2.660799,-0.3835838,-0.4540966,0.0243933,0.8744722,12.76887,-13.53719,-32.9184,986.1211
0.408157348,4.305081,2.36454,-0.200715,-0.4427029,0.01939417,0.8863568,12.76887,-13.53719,-32.9184,986.1211
0.413074493,5.541499,2.838553,-0.4445401,-0.4302527,0.001234541,0.8982962,12.76887,-13.53719,-32.9184,986.1211
0.417992592,9.498036,5.445626,-1.724622,-0.4185052,0.0003568456,0.8986572,12.76887,-13.53719,-32.9184,986.1211
0.422909736,13.39275,8.11195,-2.638967,-0.4209706,0.008088058,0.901353,12.76887,-13.53719,-32.9184,986.1211
0.427827835,14.93827,9.770996,-2.882792,-0.4308439,0.005283639,0.8901768,12.76887,-13.53719,-32.9184,986.1211
0.432744980,14.69099,8.882221,-2.456098,-0.3792053,-0.003966106,0.9137332,13.82777,-14.20347,-33.38365,986.1211
0.437668323,16.60744,11.66705,-1.846535,-0.5313981,0.02807181,0.8237578,13.82777,-14.20347,-33.38365,986.122
0.442580223,13.64004,7.104672,-1.480797,-0.4860402,0.04513718,0.8715151,13.82777,-14.20347,-33.38365,986.122
0.447497845,12.15633,6.571407,-2.029404,-0.4452609,0.006087124,0.8665297,13.82777,-14.20347,-33.38365,986.122
0.452415466,11.1672,5.445626,-0.5664527,-0.4569397,0.000564903,0.8693618,13.82777,-14.20347,-33.38365,986.122
0.457333088,10.42535,4.379096,0.2259791,-0.4673944,0.02589932,0.86589,13.82777,-14.20347,-33.38365,986.122
0.464709759,7.890693,2.246037,1.384149,-0.4595293,0.01962463,0.8661098,13.82777,-14.20347,-33.38365,986.122
0.469626903,6.777916,1.357262,2.298493,-0.4521323,0.02294875,0.8744097,13.82777,-14.20347,-33.38365,986.122
0.474545002,5.541499,0.8239977,3.090925,-0.455046,0.01757874,0.8732905,13.82777,-14.20347,-33.38365,986.122
0.479462147,5.356036,0.1722296,3.395706,-0.4555383,0.01565186,0.8717762,13.45391,-14.2003,-33.38446,986.1229
0.484379291,5.850603,0.1722296,3.639531,-0.4472364,0.03455499,0.8820247,13.45391,-14.2003,-33.38446,986.1229
0.489297390,6.159708,0.5277395,3.883357,-0.443748,0.04217607,0.8934078,13.45391,-14.2003,-33.38446,986.1229
0.494214535,5.974245,0.5277395,3.700488,-0.4566858,0.05839974,0.8804391,13.45391,-14.2003,-33.38446,986.1229
0.499132633,5.417857,0.4092362,3.395706,-0.4546969,0.05256843,0.8802359,13.45391,-14.2003,-33.38446,986.1229
0.504049778,4.676006,0.1129779,3.33475,-0.4590432,0.04519012,0.8814915,13.45391,-14.2003,-33.38446,986.1229
0.508966923,4.181439,-0.1240286,3.151881,-0.4581377,0.05064219,0.8772891,13.45391,-14.2003,-33.38446,986.1229
0.513885021,3.315947,-0.9535517,2.969012,-0.4581226,0.04627357,0.8761778,13.45391,-14.2003,-33.38446,986.1229
0.518802166,2.697738,-1.131307,2.908056,-0.4566965,0.06613494,0.884086,13.45391,-14.2003,-33.38446,986.1197
0.526178837,0.904932,-1.664571,2.664231,-0.4680154,0.07533037,0.8825315,13.45391,-14.2003,-33.38446,986.1197
0.531096458,0.03943952,-2.138585,2.115624,-0.456745,0.06478152,0.8782166,13.83888,-14.95164,-32.95918,986.1197
0.536014080,-0.8878738,-2.731101,2.054668,-0.4582134,0.06332412,0.8772108,13.83888,-14.95164,-32.95918,986.1197
0.540931702,-1.691545,-3.145863,1.627974,-0.460068,0.04768184,0.878181,13.83888,-14.95164,-32.95918,986.1197
0.545849323,-2.247934,-3.382869,1.810843,-0.4594711,0.03928226,0.8842189,13.83888,-14.95164,-32.95918,986.1197
0.550766945,-2.68068,-3.619876,1.627974,-0.4561261,0.03994577,0.8764441,13.83888,-14.95164,-32.95918,986.1197
0.555684090,-3.051605,-4.093889,1.567018,-0.4599741,0.03592939,0.8807167,13.83888,-14.95164,-32.95918,986.1197
0.560602188,-3.36071,-4.567902,1.68893,-0.4551216,0.03942185,0.8788467,13.83888,-14.95164,-32.95918,986.1206
0.565519333,-3.731635,-4.745657,1.567018,-0.4571303,0.04625521,0.8776257,13.83888,-14.95164,-32.95918,986.1206
0.570437431,-4.164381,-5.21967,1.68893,-0.4492505,0.0423632,0.880835,13.83888,-14.95164,-32.95918,986.1206
0.575354576,-4.78259,-5.21967,1.871799,-0.4551298,0.0408841,0.8788937,13.83888,-14.95164,-32.95918,986.1206
0.580271721,-5.277157,-5.693683,1.68893,-0.4546611,0.04285635,0.877982,13.47254,-15.32788,-32.58814,986.1206
0.585195064,-5.957187,-6.108445,1.749886,-0.4536235,0.04226895,0.8837811,13.47254,-15.32788,-32.58814,986.1206
0.590106964,-6.14265,-6.345451,1.627974,-0.4527599,0.04683688,0.8746952,13.47254,-15.32788,-32.58814,986.1206
0.597483635,-6.946321,-6.523206,1.384149,-0.4453231,0.04140561,0.8817431,13.47254,-15.32788,-32.58814,986.1232
0.602400780,-6.946321,-6.819465,1.323192,-0.4452837,0.03602587,0.8825414,13.47254,-15.32788,-32.58814,986.1232
0.607318878,-7.069963,-6.878716,1.323192,-0.4477789,0.03658186,0.8777243,13.47254,-15.32788,-32.58814,986.1232
0.612236023,-6.884501,-6.937968,1.140324,-0.4364625,0.03703503,0.884929,13.47254,-15.32788,-32.58814,986.1232
0.617154121,-6.82268,-6.700961,1.20128,-0.4413674,0.04039363,0.8855625,13.47254,-15.32788,-32.58814,986.1232
0.622071266,-7.131784,-6.700961,1.018411,-0.4365717,0.04399492,0.87787,13.47254,-15.32788,-32.58814,986.1232
0.626988888,-7.069963,-6.582458,0.9574546,-0.4433579,0.04815648,0.8867987,13.47254,-15.32788,-32.58814,986.1232
0.631906509,-6.946321,-6.2862,0.6526731,-0.4428872,0.05060706,0.8863879,13.08566,-14.93042,-33.40774,986.1232
0.636824131,-7.255426,-6.404703,0.2259791,-0.4428617,0.04187888,0.8836802,13.08566,-14.93042,-33.40774,986.1232
0.641741753,-7.379067,-6.345451,0.1040665,-0.4384771,0.04243334,0.8822054,13.08566,-14.93042,-33.40774,986.1239
0.646659374,-7.255426,-6.226948,-0.1397587,-0.4408461,0.04130033,0.8894715,13.08566,-14.93042,-33.40774,986.1239
0.651576519,-7.255426,-6.108445,-0.5054964,-0.4422766,0.03977039,0.8923475,13.08566,-14.93042,-33.40774,986.1239
0.656494617,-7.131784,-5.93069,-0.6883653,-0.4443094,0.03170238,0.8794816,13.08566,-14.93042,-33.40774,986.1239
0.661411762,-6.82268,-5.752935,-0.9321905,-0.4339606,0.03694832,0.8907321,13.08566,-14.93042,-33.40774,986.1239
0.666329861,-7.008142,-5.456676,-1.054103,-0.4383503,0.03399305,0.8901879,13.08566,-14.93042,-33.40774,986.1239
0.673705578,-6.513575,-5.101167,-1.419841,-0.4354206,0.03065303,0.887629,13.08566,-14.93042,-33.40774,986.1239
0.678623676,-6.575396,-4.982664,-1.480797,-0.4378605,0.03303171,0.8896675,13.08836,-14.57866,-32.94956,986.1204
0.683540821,-6.389933,-4.567902,-1.60271,-0.4315082,0.03068843,0.887598,13.08836,-14.57866,-32.94956,986.1204
0.688458919,-6.204471,-4.390147,-1.846535,-0.4388748,0.02778823,0.8827102,13.08836,-14.57866,-32.94956,986.1204
0.693376064,-6.14265,-4.390147,-1.907491,-0.4364086,0.02825243,0.8851326,13.08836,-14.57866,-32.94956,986.1204
0.698293209,-6.389933,-4.093889,-2.09036,-0.4383703,0.02920956,0.8851793,13.08836,-14.57866,-32.94956,986.1204
0.703211307,-6.204471,-4.271644,-2.334185,-0.4403273,0.03015763,0.8857113,13.08836,-14.57866,-32.94956,986.1204
0.708128452,-6.204471,-4.034637,-2.334185,-0.4393133,0.02961557,0.8890843,13.08836,-14.57866,-32.94956,986.1204
0.713046551,-6.451754,-4.034637,-2.638967,-0.4408116,0.03014414,0.8862004,13.08836,-14.57866,-32.94956,986.1204
0.717963695,-6.513575,-4.034637,-2.882792,-0.4402967,0.02720591,0.887073,13.08836,-14.57866,-32.94956,986.1214
0.722881794,-6.699038,-3.975386,-3.065661,-0.4436534,0.02029667,0.8897923,13.08836,-14.57866,-32.94956,986.1214
0.727798939,-6.760859,-4.034637,-3.24853,-0.4427015,0.01746264,0.8853238,13.08322,-13.90648,-32.92896,986.1214
0.732716560,-6.760859,-4.212392,-3.187573,-0.4342984,0.005794495,0.8873084,13.08322,-13.90648,-32.92896,986.1214
0.740096092,-6.14265,-4.093889,-2.760879,-0.438194,-0.003916708,0.8831447,13.08322,-13.90648,-32.92896,986.1214
0.745010376,-5.771724,-4.034637,-2.638967,-0.4391763,-0.001506606,0.8842011,13.08322,-13.90648,-32.92896,986.1214
0.749927998,-5.153515,-4.390147,-2.212273,-0.4357429,0.01007729,0.8923129,13.08322,-13.90648,-32.92896,986.1214
0.754845619,-5.586262,-4.093889,-2.09036,-0.4318065,0.01585287,0.8982922,13.08322,-13.90648,-32.92896,986.1214
0.759763241,-5.46262,-3.856882,-1.968448,-0.4342805,0.01009963,0.891816,13.08322,-13.90648,-32.92896,986.1179
0.764680862,-5.029874,-3.797631,-1.968448,-0.4348332,0.01311041,0.8870617,13.08322,-13.90648,-32.92896,986.1179
0.769598484,-5.153515,-3.619876,-1.785578,-0.4377204,0.0163688,0.8939874,13.08322,-13.90648,-32.92896,986.1179
0.774516106,-5.338978,-3.560624,-1.663666,-0.4323918,0.02133701,0.8916754,13.08322,-13.90648,-32.92896,986.1179
0.779434681,-5.524441,-3.679127,-2.029404,-0.4313109,0.01970222,0.9013247,12.40025,-14.92461,-33.40922,986.1179
0.784351349,-5.524441,-3.205114,-2.09036,-0.4273328,0.00466395,0.8988677,12.40025,-14.92461,-33.40922,986.1179
0.789268494,-4.968053,-2.434843,-2.334185,-0.4273815,0.006686177,0.8950487,12.40025,-14.92461,-33.40922,986.1179
0.796645164,-4.535306,-1.427565,-2.273229,-0.4273693,0.006180618,0.8960035,12.40025,-14.92461,-33.40922,986.1179
0.801562309,-3.978919,-1.309062,-2.273229,-0.4258197,-0.00601876,0.8970562,12.40025,-14.92461,-33.40922,986.119
0.806480408,-3.607993,-0.7757967,-2.029404,-0.4268753,0.002800329,0.8944345,12.40025,-14.92461,-33.40922,986.119
0.811397552,-3.298889,-0.2425319,-1.968448,-0.419376,0.00207093,0.9108577,12.40025,-14.92461,-33.40922,986.119
0.816314697,-2.927963,0.764746,-1.846535,-0.412625,-0.002505487,0.8980317,12.40025,-14.92461,-33.40922,986.119
0.821232796,-0.826053,1.475766,-1.236972,-0.4125576,0.01134847,0.9135269,12.40025,-14.92461,-33.40922,986.119
0.826149940,-1.629725,2.423792,-1.541753,-0.4175279,0.02302945,0.9124856,13.073,-13.87884,-33.75899,986.119
0.831071377,-1.073336,3.549573,-2.395142,-0.4081237,0.02145176,0.9230396,13.073,-13.87884,-33.75899,986.119
0.835985184,1.399499,5.090116,-3.126617,-0.3820579,-0.002702724,0.9230223,13.073,-13.87884,-33.75899,986.119
0.840903282,5.912424,8.645215,-4.772437,-0.3722261,0.0392379,0.9539039,13.073,-13.87884,-33.75899,986.1183
0.845820427,8.076156,12.73358,-7.576427,-0.3761324,0.03726189,0.9533871,13.073,-13.87884,-33.75899,986.1183
0.850738049,12.52726,17.05895,-9.892765,-0.3751409,0.02904812,0.9497169,13.073,-13.87884,-33.75899,986.1183
0.855655670,17.41111,21.97683,-13.00154,-0.3480179,0.02500219,0.9702426,13.073,-13.87884,-33.75899,986.1183
0.860573292,27.42609,30.15356,-17.75613,-0.2916583,0.02723402,1.033942,13.073,-13.87884,-33.75899,986.1183
0.867949963,55.24549,52.13592,-29.39878,-0.2264375,0.01496832,1.094676,13.073,-13.87884,-33.75899,986.1183
0.872867107,69.95886,62.38646,-39.02987,-0.2304485,0.0493129,1.004045,13.073,-13.87884,-33.75899,986.1183
0.877785206,81.39573,75.77733,-43.41873,-0.2693391,-0.02618282,1.083999,12.39781,-13.90067,-32.93044,986.1183
0.882702351,92.52349,85.31684,-44.51594,-0.2949762,0.002913751,1.080772,12.39781,-13.90067,-32.93044,986.1148
0.887620449,95.18179,91.71602,-44.82072,-0.3305667,0.0660048,1.080659,12.39781,-13.90067,-32.93044,986.1148
0.892537594,99.07651,99.47798,-44.21116,-0.3259352,0.09260538,1.120802,12.39781,-13.90067,-32.93044,986.1148
0.897454739,97.65462,105.5809,-43.23586,-0.2907473,0.1055062,1.125782,12.39781,-13.90067,-32.93044,986.1148
0.902372837,96.1091,113.4614,-39.2737,-0.2548726,0.0529818,1.212657,12.39781,-13.90067,-32.93044,986.1148
0.907290459,88.25785,110.6765,-38.96892,-0.1707417,0.1738221,1.388691,12.39781,-13.90067,-32.93044,986.1148
0.912208080,79.66474,136.6288,-17.57326,-0.6549828,0.1414974,1.062437,12.39781,-13.90067,-32.93044,986.1148
0.917125225,60.37663,132.2441,-14.34258,-0.7787619,0.6100258,1.143536,12.39781,-13.90067,-32.93044,986.1148
0.922043323,51.96899,123.7119,-33.90955,-0.4570719,0.3349897,1.111685,12.39781,-13.90067,-32.93044,986.1175
0.926960468,36.26648,123.5341,-34.82389,-0.3624428,0.1788024,1.344298,14.61175,-15.02602,-30.91442,986.1175
0.931881905,20.9349,152.8637,-6.844951,-0.6571148,0.3501396,1.223058,14.61175,-15.02602,-30.91442,986.1175
0.936795712,13.33093,150.0789,-18.12186,-0.6945997,0.3238478,1.072978,14.61175,-15.02602,-30.91442,986.1175
0.941712856,12.15633,141.1911,-29.94738,-0.4963553,0.1282179,1.273373,14.61175,-15.02602,-30.91442,986.1175
0.946630955,7.519767,143.6797,-31.95894,-0.5189549,0.1277083,1.211879,14.61175,-15.02602,-30.91442,986.1175
0.951548100,3.501409,138.6433,-34.09241,-0.4967503,-0.02231922,1.393818,14.61175,-15.02602,-30.91442,986.1175
0.958924770,10.8581,126.9707,-43.66255,-0.762542,0.1608229,1.332925,14.61175,-15.02602,-30.91442,986.1201
0.963842392,10.73445,122.8231,-48.11236,-0.8199831,0.1920508,1.279047,14.61175,-15.02602,-30.91442,986.1201
0.968759537,12.40362,111.2691,-49.81914,-0.705139,0.3460786,1.31266,14.61175,-15.02602,-30.91442,986.1201
0.973677635,9.436215,96.57465,-41.10239,-0.3444882,0.6294802,1.352289,14.61175,-15.02602,-30.91442,986.1201
0.978594780,-13.37569,90.23473,-25.80236,-0.269523,0.7393862,1.534845,18.64771,-16.92548,-28.15079,986.1201
0.983512878,-36.31124,88.81269,-11.72145,-0.3937094,0.7319529,1.586122,18.64771,-16.92548,-28.15079,986.1201
0.988430023,-55.78483,84.36881,-5.138175,-0.4632974,0.5792956,1.630838,18.64771,-16.92548,-28.15079,986.1201
0.993347645,-72.29101,90.94575,-15.98839,-0.9881401,0.2246816,1.461607,18.64771,-16.92548,-28.15079,986.1201
0.998265266,-48.18086,74.35529,-37.14023,-0.8173234,-0.1785637,1.276853,18.64771,-16.92548,-28.15079,986.1201
1.003182411,-33.09656,57.76483,-34.58006,-0.01060763,-0.09174252,1.347303,18.64771,-16.92548,-28.15079,986.1211
1.008100510,-34.20934,50.41762,-29.03304,0.1570115,0.1505573,1.328448,18.64771,-16.92548,-28.15079,986.1211
1.013017654,-42.06059,46.74402,-29.70356,0.1509296,0.08294819,1.315648,18.64771,-16.92548,-28.15079,986.1211
1.017935753,-41.75148,44.49246,-29.70356,0.1693878,0.01874559,1.262943,18.64771,-16.92548,-28.15079,986.1211
1.025311470,-36.31124,39.15981,-33.66572,0.2715656,-0.1837434,1.133743,21.91578,-17.38763,-26.11188,986.1211
1.030229568,-29.82005,32.52363,-32.69042,0.3058909,-0.1792917,1.094761,21.91578,-17.38763,-26.11188,986.1211
1.035146713,-25.43077,24.70241,-31.41034,0.3462447,-0.09649869,1.12039,21.91578,-17.38763,-26.11188,986.1211
1.040064812,-26.23444,17.29595,-31.28843,0.3661504,-0.06035716,1.127212,21.91578,-17.38763,-26.11188,986.1177
1.044981956,-26.85265,9.296983,-31.53225,0.4164653,-0.08052474,1.108187,21.91578,-17.38763,-26.11188,986.1177
1.049899578,-28.15089,1.001753,-30.92269,0.4277034,-0.1136739,1.08664,21.91578,-17.38763,-26.11188,986.1177
1.054817200,-27.5945,-7.945245,-29.58165,0.4257336,-0.1797241,1.044725,21.91578,-17.38763,-26.11188,986.1177
1.059734821,-24.13253,-17.36626,-27.692,0.4159781,-0.2102388,1.028775,21.91578,-17.38763,-26.11188,986.1177
1.064652443,-20.42327,-27.43904,-26.10714,0.4099292,-0.2089815,1.0109,21.91578,-17.38763,-26.11188,986.1177
1.069570065,-17.45587,-36.74155,-24.58323,0.421626,-0.2116909,1.004891,21.91578,-17.38763,-26.11188,986.1177
1.074487686,-13.87026,-45.33303,-23.12028,0.4243304,-0.1948292,0.9913285,24.09573,-16.68559,-25.7016,986.1177
1.079405308,-10.53193,-53.095,-21.23063,0.4253609,-0.2016714,0.9925573,24.09573,-16.68559,-25.7016,986.1203
1.084322453,-6.82268,-59.84969,-19.4629,0.3998822,-0.179147,1.001743,24.09573,-16.68559,-25.7016,986.1203
1.089240551,-3.917098,-66.54512,-18.42665,0.3602522,-0.1698297,1.006251,24.09573,-16.68559,-25.7016,986.1203
1.096616268,-1.382441,-78.39545,-16.35413,0.2675775,-0.1354813,1.003258,24.09573,-16.68559,-25.7016,986.1203
1.101534367,-1.32062,-86.03891,-15.13501,0.2328596,-0.1141066,1.017337,24.09573,-16.68559,-25.7016,986.1203
1.106451511,-1.629725,-92.73435,-13.97684,0.2066103,-0.1160981,1.033026,24.09573,-16.68559,-25.7016,986.1203
1.111369610,-2.927963,-99.07427,-12.2091,0.151743,-0.1115925,1.026823,24.09573,-16.68559,-25.7016,986.1203
1.116286755,-3.546172,-105.3549,-9.283202,0.1132559,-0.123316,1.035503,24.09573,-16.68559,-25.7016,986.1203
1.121204853,-3.113426,-110.6876,-5.382,0.07560306,-0.1135389,1.042437,24.09573,-16.68559,-25.7016,986.1187
1.126121998,-3.546172,-115.7832,-1.60271,0.01160279,-0.1349778,1.036934,25.59396,-17.06491,-25.70961,986.1187
1.131039143,-2.00065,-122.6564,1.627974,-0.05748334,-0.1541576,1.012609,25.59396,-17.06491,-25.70961,986.1187
1.135957241,-0.207844,-130.3591,4.492919,-0.08556403,-0.1086924,1.019639,25.59396,-17.06491,-25.70961,986.1187
1.140874386,-0.02238137,-136.4621,7.174996,-0.0974284,-0.06274784,1.034804,25.59396,-17.06491,-25.70961,986.1187
1.145792484,-0.6405903,-140.5504,10.28377,-0.1132173,-0.02886996,1.041361,25.59396,-17.06491,-25.70961,986.1187
1.150712490,-1.877008,-144.1055,13.20967,-0.1715216,-0.009421526,1.042948,25.59396,-17.06491,-25.70961,986.1187
1.155627251,-4.04074,-147.1273,15.34314,-0.236436,0.01575724,1.021954,25.59396,-17.06491,-25.70961,986.1187
1.163003445,-7.935455,-153.0525,17.11087,-0.2841513,0.02309272,0.9983038,25.59396,-17.06491,-25.70961,986.1193
1.167921543,-8.491843,-155.7188,17.29374,-0.3168167,0.02645975,1.011304,25.59396,-17.06491,-25.70961,986.1193
1.172838688,-8.98641,-157.3186,16.25748,-0.3435051,0.006023655,0.9700826,26.26443,-17.03032,-26.92124,986.1193
1.177756310,-8.553664,-159.3332,15.58696,-0.3566512,-0.03037101,0.9539719,26.26443,-17.03032,-26.92124,986.1193
1.182673931,-8.862768,-160.1627,15.52601,-0.3325703,-0.05111314,0.9531093,26.26443,-17.03032,-26.92124,986.1193
1.187591553,-8.30638,-163.0661,20.40251,-0.4432584,-0.05519868,0.8844553,26.26443,-17.03032,-26.92124,986.1193
1.192509174,-1.506083,-159.3332,14.0021,-0.406601,-0.0234839,0.9011939,26.26443,-17.03032,-26.92124,986.1193
1.197426796,1.090395,-161.407,16.07462,-0.317336,-0.05159941,0.9602517,26.26443,-17.03032,-26.92124,986.1193
1.202343941,3.501409,-157.2594,19.54912,-0.3785543,-0.02114828,0.9199744,26.26443,-17.03032,-26.92124,986.1202
1.207262039,5.788782,-154.8893,21.19494,-0.4394976,0.003975175,0.9557531,26.26443,-17.03032,-26.92124,986.1202
1.212179184,8.076156,-151.0972,23.26746,-0.497366,-0.002989952,0.9356123,26.26443,-17.03032,-26.92124,986.1202
1.217097282,15.18556,-151.6305,22.84076,-0.5311517,-0.02730344,0.9676408,26.26443,-17.03032,-26.92124,986.1202
1.222014427,19.88395,-150.4454,25.70571,-0.6031745,-0.009377684,0.9658934,25.8546,-18.66533,-30.99881,986.1202
1.229391098,26.00421,-151.2157,27.77822,-0.7074678,0.01788645,0.9710222,25.8546,-18.66533,-30.99881,986.1202
1.234308243,30.3935,-152.697,28.93639,-0.7332253,0.01541201,0.9866915,25.8546,-18.66533,-30.99881,986.1202
1.239226341,32.92815,-152.934,29.42404,-0.7430711,0.004357768,0.9733084,25.8546,-18.66533,-30.99881,986.1202
1.244143486,35.71009,-154.119,31.80134,-0.7200765,0.05131927,1.002786,25.8546,-18.66533,-30.99881,986.1212
1.249060631,35.64827,-151.6897,30.39934,-0.6376898,0.01257281,1.001353,25.8546,-18.66533,-30.99881,986.1212
1.253978729,33.79364,-149.4382,32.22803,-0.6769493,0.07272884,0.9739867,25.8546,-18.66533,-30.99881,986.1212
1.258895874,32.49541,-145.9423,30.4603,-0.6753001,0.07866135,0.9964981,25.8546,-18.66533,-30.99881,986.1212
1.263813973,30.57896,-138.8914,29.72882,-0.6744309,0.04847987,0.9158956,25.8546,-18.66533,-30.99881,986.1212
1.268731117,27.61156,-135.6918,27.16866,-0.570689,-0.01332055,1.035417,25.8546,-18.66533,-30.99881,986.1212
1.273649216,29.52801,-126.4485,26.37623,-0.6418878,-0.008174291,0.8574899,23.32364,-21.35255,-36.00854,986.1212
1.278566361,30.14621,-122.4194,25.88858,-0.665175,0.008174038,0.9888141,23.32364,-21.35255,-36.00854,986.1212
1.283489227,31.44445,-114.0649,25.70571,-0.7636085,-0.01755328,0.9096549,23.32364,-21.35255,-36.00854,986.1178
1.288401604,34.22639,-113.8872,24.24276,-0.8556227,-0.09057283,0.8585443,23.32364,-21.35255,-36.00854,986.1178
1.295778275,40.59394,-116.6128,27.90014,-1.001503,0.03420892,0.871511,23.32364,-21.35255,-36.00854,986.1178
1.300695419,40.65576,-116.9683,29.24117,-0.9638601,0.1252048,0.8746051,23.32364,-21.35255,-36.00854,986.1178
1.305613041,35.83373,-115.724,30.27743,-0.9233779,0.1937901,0.955614,23.32364,-21.35255,-36.00854,986.1178
1.310530663,31.07353,-108.673,29.485,-0.899426,0.2103796,0.8627267,23.32364,-21.35255,-36.00854,986.1178
1.315448284,25.38601,-105.4734,27.22962,-0.8523887,0.1474697,0.8326482,23.32364,-21.35255,-36.00854,986.1178
1.320365906,16.54562,-97.41523,26.68101,-0.8107255,0.06183825,0.7892613,23.32364,-21.35255,-36.00854,986.117
1.325283527,13.76368,-90.36428,24.6085,-0.8406269,-0.008236591,0.6886963,20.38682,-24.77629,-38.99667,986.117
1.330200672,14.01096,-84.91313,21.92642,-0.8431096,-0.08003144,0.6407745,20.38682,-24.77629,-38.99667,986.117
1.335118770,15.74195,-79.16573,19.67104,-0.8107548,-0.06303343,0.6080377,20.38682,-24.77629,-38.99667,986.117
1.340039730,16.54562,-71.99627,16.19653,-0.8008372,-0.03092276,0.5910209,20.38682,-24.77629,-38.99667,986.117
1.344954014,15.3092,-65.00458,13.33158,-0.7963815,-0.04687706,0.6375698,20.38682,-24.77629,-38.99667,986.117
1.349871158,15.43284,-54.51704,10.71046,-0.8912266,-0.06184341,0.4805551,20.38682,-24.77629,-38.99667,986.117
1.354789257,18.09114,-50.90269,5.651089,-0.8241347,-0.1303212,0.5486969,20.38682,-24.77629,-38.99667,986.117
1.359706402,20.06941,-43.31848,5.224395,-0.8941193,-0.02675101,0.5064662,20.38682,-24.77629,-38.99667,986.117
1.367083073,16.29833,-34.60849,2.298493,-0.8904505,0.0359527,0.5196139,20.38682,-24.77629,-38.99667,986.1179
1.372000217,11.90905,-27.49829,1.140324,-0.8658024,0.06518999,0.506754,16.02284,-28.26386,-41.54283,986.1179
1.376917839,6.221529,-19.32156,-0.627409,-0.852221,0.06360003,0.4939677,16.02284,-28.26386,-41.54283,986.1179
1.381835461,1.152216,-11.32259,-2.517054,-0.8436515,0.06027011,0.4675717,16.02284,-28.26386,-41.54283,986.1179
1.386753082,-2.866143,-3.027359,-4.040961,-0.8586591,0.06753257,0.437339,16.02284,-28.26386,-41.54283,986.1179
1.391670704,-6.080829,4.4976,-6.357301,-0.8995016,0.06523605,0.4104106,16.02284,-28.26386,-41.54283,986.1179
1.396587849,-7.811814,10.95603,-8.734596,-0.9314399,0.04498475,0.3828335,16.02284,-28.26386,-41.54283,986.1179
1.401505947,-7.008142,17.1182,-10.6852,-0.962732,0.04804093,0.3351204,16.02284,-28.26386,-41.54283,986.1206
1.406423092,-5.277157,21.91758,-11.47763,-0.9382039,0.1295838,0.3419033,16.02284,-28.26386,-41.54283,986.1206
1.411340713,-7.811814,28.07975,-12.6358,-0.9454346,0.187155,0.3374966,16.02284,-28.26386,-41.54283,986.1206
1.418717384,-9.480977,37.91553,-14.40353,-0.9772052,0.220082,0.3091954,16.02284,-28.26386,-41.54283,986.1206
1.423634529,-8.739126,43.78144,-15.43979,-0.9888777,0.2439386,0.279953,13.83309,-29.59769,-43.18682,986.1206
1.428552627,-6.82268,49.7066,-15.62266,-0.9868612,0.2645525,0.2480665,13.83309,-29.59769,-43.18682,986.1206
1.433469772,-8.800947,57.70557,-18.4876,-0.926743,0.4074068,0.3312955,13.83309,-29.59769,-43.18682,986.1206
1.438387871,-4.535306,67.42284,-20.8649,-0.9976542,0.4867605,0.2795563,13.83309,-29.59769,-43.18682,986.1206
1.443305015,-15.97217,77.25862,-13.79397,-0.9614007,0.649416,0.2839884,13.83309,-29.59769,-43.18682,986.1199
1.448223114,-28.45999,89.81997,-12.08719,-0.9508997,0.593177,0.3748362,13.83309,-29.59769,-43.18682,986.1199
1.453140259,-38.8459,104.5144,-6.113475,-0.8952624,0.5239854,0.3197234,13.83309,-29.59769,-43.18682,986.1199
1.458057403,-58.01038,104.4551,6.199696,-0.4517354,0.2832659,0.4661641,13.83309,-29.59769,-43.18682,986.1199
1.462975502,-68.45811,120.6308,26.62005,-0.3116118,-0.01992763,0.9646189,13.83309,-29.59769,-43.18682,986.1199
1.467892647,-56.21757,127.03,40.15235,0.3453831,-0.3153559,1.65815,13.83309,-29.59769,-43.18682,986.1199
1.472810745,2.512275,152.0342,38.87227,1.924504,-0.6542788,2.949152,14.90268,-30.35272,-42.82392,986.1199
1.477727890,64.51862,207.1975,32.65472,2.956781,-0.4564584,3.552969,14.90268,-30.35272,-42.82392,986.1199
1.485104561,-42.86426,264.0198,18.51287,0.1347447,-0.7688336,1.448212,14.90268,-30.35272,-42.82392,986.1165
1.490021706,-71.42551,261.1165,27.04675,-1.953748,-1.372122,0.01465328,14.90268,-30.35272,-42.82392,986.1165
1.494939804,-5.215336,228.5873,2.298493,-2.802849,-1.725166,0.1535353,14.90268,-30.35272,-42.82392,986.1165
1.499856949,59.07839,202.3981,-21.71828,-2.313002,-1.815501,-0.2320984,14.90268,-30.35272,-42.82392,986.1165
1.504775047,128.8742,151.6787,-4.284787,-1.960647,-0.8813602,1.122898,14.90268,-30.35272,-42.82392,986.1165
1.509692192,135.8599,137.873,-8.00312,-1.804405,-0.1413709,1.243905,14.90268,-30.35272,-42.82392,986.1165
1.514609814,134.6235,112.2763,-17.39039,-1.31741,0.0579403,1.146278,14.90268,-30.35272,-42.82392,986.1165
1.519527435,140.3729,98.70771,-16.35413,-0.8796186,0.2593118,1.019504,18.9812,-31.48116,-41.18695,986.1165
1.524445057,144.9476,90.05698,-13.67206,-0.5626106,0.6254572,1.047578,18.9812,-31.48116,-41.18695,986.1189
1.529368400,131.7798,89.99772,-7.393558,-0.359457,0.9812288,1.080623,18.9812,-31.48116,-41.18695,986.1189
1.534280300,105.8768,96.21915,4.249094,-0.4509358,1.394577,1.180566,18.9812,-31.48116,-41.18695,986.1189
1.539197445,66.86782,98.82622,12.11246,-0.6082656,1.615509,1.028715,18.9812,-31.48116,-41.18695,986.1189
1.544115543,33.48454,104.9291,13.94114,-0.6809146,1.489588,1.07674,18.9812,-31.48116,-41.18695,986.1189
1.551491737,-14.55029,108.0695,27.16866,-0.9414873,1.083514,0.9420477,18.9812,-31.48116,-41.18695,986.1189
1.556409359,-33.90023,104.2181,24.48658,-0.9584143,0.6558512,0.8517603,18.9812,-31.48116,-41.18695,986.1189
1.561326504,-39.15501,97.93744,12.84393,-0.9342273,0.2709269,0.7906668,18.9812,-31.48116,-41.18695,986.1198
1.566244602,-33.65295,87.74615,1.932755,-0.7522713,-0.05575792,0.7937508,18.9812,-31.48116,-41.18695,986.1198
1.571161747,-22.77247,79.51018,-6.783995,-0.635338,-0.07697636,0.7843422,24.47352,-33.81469,-36.7714,986.1198
1.576079845,-18.87775,71.1557,-14.89118,-0.6398925,0.03661096,0.8890127,24.47352,-33.81469,-36.7714,986.1198
1.580996990,-21.35059,67.06734,-20.98681,-0.6938767,0.08275305,0.8477225,24.47352,-33.81469,-36.7714,986.1198
1.585915089,-18.25954,58.71285,-18.60951,-0.6540171,0.1284458,0.9008126,24.47352,-33.81469,-36.7714,986.1198
1.590832233,-21.9688,54.80225,-12.6358,-0.6396531,0.1412446,0.927324,24.47352,-33.81469,-36.7714,986.1198
1.595749378,-24.75074,50.71388,-8.734596,-0.6856552,0.05795415,0.8735643,24.47352,-33.81469,-36.7714,986.1198
1.600667477,-22.15426,44.3147,-9.039377,-0.7266139,-0.09644371,0.8427313,24.47352,-33.81469,-36.7714,986.1198
1.605584621,-12.01563,37.20451,-9.405115,-0.6847299,-0.1714087,0.8288167,24.47352,-33.81469,-36.7714,986.1208
1.610502720,-1.691545,31.33859,-8.856508,-0.5683032,-0.116896,0.8640819,24.47352,-33.81469,-36.7714,986.1208
1.615425587,5.60332,27.48724,-7.759295,-0.509415,-0.01794981,0.8434654,24.47352,-33.81469,-36.7714,986.1208
1.620337963,5.850603,26.24295,-5.321043,-0.5356058,0.1052909,0.8913299,27.41992,-34.96496,-36.0326,986.1208
1.627713680,2.14135,22.68785,-5.138175,-0.5995337,0.1424736,0.7770039,27.41992,-34.96496,-36.0326,986.1208
1.632631779,-1.938829,21.02881,-4.345743,-0.5144947,0.03784129,0.908901,27.41992,-34.96496,-36.0326,986.1208
1.637548923,-3.855277,21.73983,-2.395142,-0.5290048,-0.04989735,0.8212383,27.41992,-34.96496,-36.0326,986.1208
1.642466545,-2.247934,21.56207,-1.236972,-0.550416,-0.1539437,0.8195347,27.41992,-34.96496,-36.0326,986.1217
1.647384167,5.479678,16.9997,1.384149,-0.5362575,-0.1725526,0.8562081,27.41992,-34.96496,-36.0326,986.1217
1.652301788,10.67263,17.35521,3.517619,-0.5064546,-0.1023326,0.8451055,27.41992,-34.96496,-36.0326,986.1217
1.657219410,16.60744,15.81466,4.858657,-0.5240763,0.002631519,0.8573551,27.41992,-34.96496,-36.0326,986.1217
1.662137031,17.34929,14.80739,5.102482,-0.5147538,0.09955293,0.8691257,27.41992,-34.96496,-36.0326,986.1217
1.667058945,15.68013,14.15562,4.553876,-0.4796541,0.1415537,0.8828081,27.41992,-34.96496,-36.0326,986.1217
1.671972275,12.3418,16.05167,5.041526,-0.4860719,0.1305213,0.8698832,28.47908,-34.25554,-35.5609,986.1217
1.676889419,11.35266,13.80011,5.041526,-0.516277,0.08952154,0.8571637,28.47908,-34.25554,-35.5609,986.1217
1.681807518,10.98174,12.91133,5.46822,-0.5108526,-0.004036568,0.8550906,28.47908,-34.25554,-35.5609,986.1209
1.686724663,11.84723,11.54855,7.662647,-0.5392609,-0.003245849,0.8514649,28.47908,-34.25554,-35.5609,986.1209
1.694101334,14.75281,9.415486,9.186554,-0.5302037,0.02621934,0.8450522,28.47908,-34.25554,-35.5609,986.1209
1.699018478,15.98923,7.874944,9.491335,-0.5218647,0.1115699,0.8491769,28.47908,-34.25554,-35.5609,986.1209
1.703936577,14.93827,6.275149,8.881772,-0.5190468,0.2154662,0.8500572,28.47908,-34.25554,-35.5609,986.1209
1.708853722,12.09451,4.023586,6.504477,-0.5505414,0.2830406,0.8209226,28.47908,-34.25554,-35.5609,986.1209
1.713771820,7.272484,2.542295,3.8224,-0.5220245,0.2945781,0.843393,28.47908,-34.25554,-35.5609,986.1209
1.718688965,4.737827,1.949779,0.7745857,-0.5353606,0.2628877,0.8104411,28.8754,-34.6785,-33.97512,986.1209
1.723606110,1.399499,0.3499845,-1.176016,-0.5567287,0.2267238,0.8041161,28.8754,-34.6785,-33.97512,986.1192
1.728524208,-1.506083,-1.783075,-3.126617,-0.5504969,0.1744871,0.8096731,28.8754,-34.6785,-33.97512,986.1192
1.733441353,-2.989784,-3.205114,-3.065661,-0.524846,0.1521146,0.8184561,28.8754,-34.6785,-33.97512,986.1192
1.738359451,-5.029874,-4.627154,-3.126617,-0.5349532,0.1396549,0.8278502,28.8754,-34.6785,-33.97512,986.1192
1.743276596,-6.82268,-5.752935,-2.760879,-0.5185326,0.1228659,0.8465986,28.8754,-34.6785,-33.97512,986.1192
1.748194694,-8.924589,-6.582458,-2.212273,-0.507486,0.09589228,0.8597235,28.8754,-34.6785,-33.97512,986.1192
1.753114700,-10.71739,-6.819465,0.1650228,-0.4805754,0.08550318,0.8543143,28.8754,-34.6785,-33.97512,986.1192
1.760488510,-13.06659,-7.056471,2.969012,-0.4996341,0.07276656,0.8482358,28.8754,-34.6785,-33.97512,986.1192
1.765406132,-14.61211,-7.76749,5.346307,-0.5111734,0.06070837,0.8615389,28.8754,-34.6785,-33.97512,986.1218
1.770323753,-15.23032,-8.360006,7.235952,-0.4782058,0.07650925,0.840897,28.87349,-35.03239,-34.36945,986.1218
1.775241375,-16.46674,-8.182252,9.24751,-0.4874672,0.09517144,0.8556519,28.87349,-35.03239,-34.36945,986.1218
1.780158520,-17.33223,-7.885993,10.6495,-0.4979674,0.1119137,0.8421943,28.87349,-35.03239,-34.36945,986.1218
1.785076618,-17.8268,-7.76749,11.50289,-0.4909723,0.1280853,0.8674177,28.87349,-35.03239,-34.36945,986.1218
1.789993763,-19.68143,-7.589736,11.56385,-0.4867998,0.1497802,0.8569117,28.87349,-35.03239,-34.36945,986.1218
1.794911861,-19.6196,-7.115723,11.01524,-0.4916853,0.1555124,0.8610199,28.87349,-35.03239,-34.36945,986.1218
1.799829006,-19.99053,-6.819465,10.16185,-0.5022488,0.1593574,0.8330688,28.87349,-35.03239,-34.36945,986.1218
1.804746151,-20.23781,-7.885993,9.613248,-0.5083721,0.1930631,0.8274023,28.87349,-35.03239,-34.36945,986.1245
1.809664249,-21.72151,-8.241504,7.418821,-0.4956778,0.1831147,0.8697062,28.87349,-35.03239,-34.36945,986.1245
1.814581394,-23.20522,-7.471232,6.809258,-0.4790437,0.1470897,0.8480222,28.87349,-35.03239,-34.36945,986.1245
1.819499493,-21.28877,-6.2862,6.260652,-0.4834149,0.1383126,0.8458345,28.49132,-34.64769,-34.80596,986.1245
1.824416637,-19.00139,-4.86416,5.590133,-0.4896117,0.1037119,0.8413773,28.49132,-34.64769,-34.80596,986.1245
1.829334736,-18.32137,-4.330895,5.955871,-0.4981797,0.1489666,0.8428985,28.49132,-34.64769,-34.80596,986.1245
1.834251881,-18.19772,-4.271644,6.016827,-0.4608071,0.1161222,0.8434809,28.49132,-34.64769,-34.80596,986.1245
1.839169025,-17.14677,-3.619876,6.809258,-0.5071134,0.1346725,0.8206645,28.49132,-34.64769,-34.80596,986.1245
1.846545696,-15.29214,-4.271644,3.578575,-0.5162599,0.1511855,0.8460312,28.49132,-34.64769,-34.80596,986.1212
1.851463795,-15.97217,-5.101167,2.054668,-0.507538,0.1398483,0.8305446,28.49132,-34.64769,-34.80596,986.1212
1.856380939,-17.08495,-5.397425,1.810843,-0.471343,0.1112572,0.8638038,28.49132,-34.64769,-34.80596,986.1212
1.861298561,-16.77584,-4.449399,1.567018,-0.5105768,0.08121833,0.8345162,28.49132,-34.64769,-34.80596,986.1212
1.866216183,-14.67393,-6.108445,1.567018,-0.5043638,0.085411,0.8219757,28.09972,-34.23748,-36.00865,986.1212
1.871133804,-13.80844,-5.812187,1.506061,-0.5001568,0.09211375,0.856629,28.09972,-34.23748,-36.00865,986.1212
1.876051426,-13.74662,-4.567902,-0.3226275,-0.5076776,0.05913202,0.817276,28.09972,-34.23748,-36.00865,986.1212
1.880969048,-10.96468,-5.812187,-0.2616712,-0.5042794,0.0736767,0.8235409,28.09972,-34.23748,-36.00865,986.1212
1.885886669,-10.34647,-6.404703,-0.200715,-0.4922042,0.09193967,0.8696676,28.09972,-34.23748,-36.00865,986.1238
1.890804291,-11.08832,-5.278922,-1.60271,-0.4867262,0.07106566,0.8670112,28.09972,-34.23748,-36.00865,986.1238
1.895721436,-9.171873,-5.160419,-0.2616712,-0.4803509,0.08217961,0.8755694,28.09972,-34.23748,-36.00865,986.1238
1.900639534,-9.790082,-4.567902,-0.4445401,-0.4713756,0.0698743,0.885783,28.09972,-34.23748,-36.00865,986.1238
1.905556679,-7.749993,-3.205114,-0.7493216,-0.4647375,0.04622744,0.8495263,28.09972,-34.23748,-36.00865,986.1238
1.910474777,-6.389933,-3.027359,-0.07880237,-0.4766999,0.07210856,0.8422002,28.09972,-34.23748,-36.00865,986.1238
1.915391922,-6.575396,-2.553346,-0.8102779,-0.4926575,0.09138434,0.8730522,28.09972,-34.23748,-36.00865,986.1238
1.922768593,-6.82268,-2.968108,-1.297928,-0.4785996,0.09705566,0.863408,27.40488,-34.20617,-36.77631,986.1261
1.927685738,-7.440888,-2.375591,-1.846535,-0.4801426,0.07886516,0.8443871,27.40488,-34.20617,-36.77631,986.1261
1.932603836,-7.193605,-2.849604,-2.943748,-0.4801408,0.08271914,0.8469384,27.40488,-34.20617,-36.77631,986.1261
1.937520981,-6.204471,-2.079333,-4.467656,-0.4809529,0.06310475,0.8521425,27.40488,-34.20617,-36.77631,986.1261
1.942438126,-5.091694,-2.494095,-3.553311,-0.4726924,0.09607044,0.8667267,27.40488,-34.20617,-36.77631,986.1261
1.947356224,-6.575396,-2.197836,-3.73618,-0.4712498,0.1004705,0.866856,27.40488,-34.20617,-36.77631,986.1261
1.952273369,-6.389933,-1.842326,-4.22383,-0.469185,0.06942042,0.859046,27.40488,-34.20617,-36.77631,986.1261
1.957191467,-5.338978,-1.131307,-4.22383,-0.4647035,0.08521853,0.876995,27.40488,-34.20617,-36.77631,986.1261
1.962109566,-4.906232,0.2907329,-4.101918,-0.4712591,0.09711298,0.8638352,27.40488,-34.20617,-36.77631,986.1261
1.967026711,-5.091694,0.9425009,-4.101918,-0.466768,0.1220541,0.8883892,27.77785,-33.4888,-36.36993,986.1187
1.971943855,-6.019008,1.535017,-5.138175,-0.4699053,0.1065051,0.8578133,27.77785,-33.4888,-36.36993,986.1187
1.976861477,-5.029874,2.00903,-5.686781,-0.4667603,0.096484,0.8734888,27.77785,-33.4888,-36.36993,986.1187
1.981779099,-5.648083,3.016308,-5.442956,-0.4698589,0.09821899,0.8575472,27.77785,-33.4888,-36.36993,986.1187
1.989155769,-6.389933,3.905083,-5.991563,-0.4617703,0.1368184,0.8577473,27.77785,-33.4888,-36.36993,986.1187
1.994072914,-5.709903,4.260593,-7.759295,-0.4586056,0.1257952,0.8748472,27.77785,-33.4888,-36.36993,986.1187
1.998990536,-6.884501,4.912361,-8.00312,-0.4555458,0.1376354,0.8951086,27.77785,-33.4888,-36.36993,986.1187
2.003908157,-6.14265,5.919639,-7.759295,-0.3971931,0.1137548,0.8958062,27.77785,-33.4888,-36.36993,986.1211
2.008825779,-6.760859,9.415486,-9.527028,-0.4735964,0.08868685,0.8698961,27.77785,-33.4888,-36.36993,986.1211
2.013743401,-2.742501,11.48929,-10.98998,-0.4628001,0.06414354,0.90932,27.77785,-33.4888,-36.36993,986.1211
2.018661022,-2.742501,12.43732,-10.44137,-0.4325045,0.1073809,0.9327923,28.08659,-33.1248,-36.35802,986.1211
2.023578644,-2.124292,14.68888,-12.39197,-0.4099762,0.07184205,0.9139886,28.08659,-33.1248,-36.35802,986.1211
2.028496265,-0.2696649,18.18473,-10.38042,-0.4686284,0.0886041,0.9286024,28.08659,-33.1248,-36.35802,986.1211
2.033413410,-2.00065,19.01425,-10.19755,-0.4760056,0.05004311,0.9007221,28.08659,-33.1248,-36.35802,986.1211
2.038331509,0.5958275,20.49554,-10.13659,-0.3859254,0.02514212,0.9448248,28.08659,-33.1248,-36.35802,986.1211
2.043248653,0.7194693,24.70241,-6.783995,-0.5055063,0.05200842,0.8859757,28.08659,-33.1248,-36.35802,986.1211
2.048166752,1.894066,24.40615,-6.783995,-0.4674584,0.02266876,0.9080285,28.08659,-33.1248,-36.35802,986.1237
2.055542469,6.530633,29.56104,-5.077219,-0.5295519,0.02639376,0.8620461,28.08659,-33.1248,-36.35802,986.1237
2.060460567,5.356036,29.14628,-4.406699,-0.5364887,0.03858071,0.9110473,28.08659,-33.1248,-36.35802,986.1237
2.065377712,6.901558,29.7388,-4.650525,-0.450009,0.02987866,0.895978,28.46045,-33.12797,-36.35722,986.1237
2.070295811,6.221529,30.27206,-4.040961,-0.3573273,0.02302285,0.9673423,28.46045,-33.12797,-36.35722,986.1237
2.075212955,8.879827,37.20451,-3.614267,-0.6420555,-0.004959559,0.8420573,28.46045,-33.12797,-36.35722,986.1237
2.080130100,7.70523,32.81989,-0.9321905,-0.5342678,0.007231345,0.9192491,28.46045,-33.12797,-36.35722,986.1237
2.085048199,6.901558,34.47893,-1.115059,-0.4961148,-0.06042382,0.877924,28.46045,-33.12797,-36.35722,986.1203
2.089965343,9.80714,36.19723,1.323192,-0.512192,-0.05152659,0.8899941,28.46045,-33.12797,-36.35722,986.1203
2.094883442,11.35266,37.20451,3.151881,-0.5201625,-0.02142284,0.8934523,28.46045,-33.12797,-36.35722,986.1203
2.099800587,12.09451,38.62654,5.163439,-0.4874649,-0.01181101,0.9425312,28.46045,-33.12797,-36.35722,986.1203
2.104718685,13.20729,40.28559,5.651089,-0.4192141,-0.0319486,1.008329,28.46045,-33.12797,-36.35722,986.1203
2.109635830,9.065289,47.57354,12.84393,-0.5193923,-0.03784787,0.9633219,28.46045,-33.12797,-36.35722,986.1203
2.117012501,11.22902,55.0985,18.39095,-0.4458097,-0.04725891,0.9798955,28.84925,-33.17153,-35.1433,986.1203
2.121930122,12.52726,59.72013,22.17024,-0.4799209,-0.03767756,0.998933,28.84925,-33.17153,-35.1433,986.1203
2.126847744,11.59995,63.98625,26.19336,-0.4959885,-0.07603034,1.033765,28.84925,-33.17153,-35.1433,986.1212
2.131765366,10.8581,68.78563,31.74038,-0.4444269,-0.1617547,1.103909,28.84925,-33.17153,-35.1433,986.1212
2.136682510,7.70523,77.02161,41.18861,-0.3816299,-0.2492816,1.171475,28.84925,-33.17153,-35.1433,986.1212
2.141600609,10.61081,87.21289,53.50178,-0.3798897,-0.2290803,1.161427,28.84925,-33.17153,-35.1433,986.1212
2.146517754,13.08365,98.64846,62.21853,-0.3829844,-0.07112697,1.241775,28.84925,-33.17153,-35.1433,986.1212
2.151435852,16.29833,111.9801,66.91216,-0.4056064,0.09473595,1.229313,28.84925,-33.17153,-35.1433,986.1212
2.156352997,18.58571,128.9261,65.99782,-0.3096314,0.2757934,1.554784,28.84925,-33.17153,-35.1433,986.1212
2.161271095,29.52801,157.9001,55.63525,-0.2134519,0.2466018,1.518585,28.84925,-33.17153,-35.1433,986.1212
2.166188240,39.17206,186.8742,47.46711,-0.20136,0.159696,1.451124,30.30011,-33.59072,-33.93832,986.1239
2.171105385,69.7734,218.7515,37.53123,-0.1808818,0.001407839,1.448794,30.30011,-33.59072,-33.93832,986.1239
2.178482056,132.398,275.6924,22.41407,-0.08872306,0.0519699,1.501125,30.30011,-33.59072,-33.93832,986.1239
2.183399200,177.4654,321.0199,5.163439,0.02054975,0.111415,1.659933,30.30011,-33.59072,-33.93832,986.1239
2.188317299,203.5538,362.6738,-9.100333,-0.01061629,0.1893838,1.51897,30.30011,-33.59072,-33.93832,986.1239
2.193234444,199.4118,387.0854,-0.8102779,-0.1555953,0.08719451,1.333837,30.30011,-33.59072,-33.93832,986.1239
2.198152542,176.7854,393.5439,19.97582,-0.5796343,0.3836181,1.061327,30.30011,-33.59072,-33.93832,986.1239
2.203069687,158.8573,372.6873,15.09931,-0.6426627,0.4912924,0.8298123,30.30011,-33.59072,-33.93832,986.1239
2.207987785,150.2642,341.8765,21.31686,-0.1193655,0.1622718,0.4697532,30.30011,-33.59072,-33.93832,986.1248
2.212904930,128.0087,333.3442,29.30213,-1.058323,1.097115,1.616879,32.23429,-36.04457,-24.99734,986.1248
2.217823029,87.8251,319.0053,8.576991,-0.8343772,0.8940302,0.8758581,32.23429,-36.04457,-24.99734,986.1248
2.222740173,75.27546,301.1706,-1.419841,-0.7124871,0.8155242,1.24426,32.23429,-36.04457,-24.99734,986.1248
2.227657795,47.39424,297.497,3.029969,-0.8251334,0.6894556,1.151319,32.23429,-36.04457,-24.99734,986.1248
2.232575417,23.65502,289.5573,-2.09036,-1.345303,0.7113803,1.139783,32.23429,-36.04457,-24.99734,986.1248
2.239951611,37.07015,263.3088,-46.22272,-2.333037,0.4860278,0.7765126,32.23429,-36.04457,-24.99734,986.1248
2.244869232,66.55872,228.7651,-59.51119,-2.060799,0.559293,1.003858,32.23429,-36.04457,-24.99734,986.1215
2.249786854,71.75167,207.1975,-61.64466,-1.676791,1.413022,1.279586,32.23429,-36.04457,-24.99734,986.1215
2.254704475,51.84534,213.8336,-83.52796,-1.357329,1.853472,1.455682,32.23429,-36.04457,-24.99734,986.1215
2.259622097,-7.440888,214.9002,-100.1081,-1.148235,1.249404,1.516168,32.23429,-36.04457,-24.99734,986.1215
2.264539719,-31.61286,191.4365,-106.8133,-0.9604436,0.2280398,1.140063,37.87674,-39.69329,-14.16668,986.1215
2.269457340,-19.68143,165.5436,-98.03556,-1.113701,-0.03709472,1.264885,37.87674,-39.69329,-14.16668,986.1215
2.274374485,-3.917098,132.5404,-91.51324,-0.7762899,0.04117981,1.152467,37.87674,-39.69329,-14.16668,986.1215
2.279292584,1.214036,104.0404,-83.16222,-0.2953357,0.3411496,1.301856,37.87674,-39.69329,-14.16668,986.1215
2.284209728,-0.5787694,94.02683,-73.95782,-0.1414945,0.4678959,1.508096,37.87674,-39.69329,-14.16668,986.1215
2.289127827,-9.480977,119.505,-49.02671,-1.050215,0.9027856,1.476089,37.87674,-39.69329,-14.16668,986.1241
2.294044972,-11.70653,102.8553,-45.49124,-0.635779,0.689173,1.411945,37.87674,-39.69329,-14.16668,986.1241
2.298963070,-16.77584,94.02683,-40.06613,-0.07459389,0.5041994,1.113001,37.87674,-39.69329,-14.16668,986.1241
2.303880215,-25.05984,88.45718,-35.25058,-0.2278687,0.5625309,1.180705,37.87674,-39.69329,-14.16668,986.1241
2.311256886,-25.36895,68.25237,-43.96733,-0.3754662,0.2119135,0.9774317,37.87674,-39.69329,-14.16668,986.1241
2.316174030,-12.44838,52.07667,-47.74662,-0.2895322,0.1912393,0.898378,41.51916,-37.70635,-10.45396,986.1241
2.321092129,-7.502709,38.50804,-53.29365,-0.2122619,0.2536569,0.9356747,41.51916,-37.70635,-10.45396,986.1241
2.326009273,-6.575396,24.88017,-56.58529,-0.1840765,0.3410501,0.9702907,41.51916,-37.70635,-10.45396,986.1208
2.330926418,-11.08832,14.03711,-60.24266,-0.1256596,0.3474235,0.9962344,41.51916,-37.70635,-10.45396,986.1208
2.335844517,-15.97217,5.445626,-64.81438,-0.1118634,0.2808097,0.9658244,41.51916,-37.70635,-10.45396,986.1208
2.340761661,-17.02313,-4.982664,-69.75184,-0.1240791,0.1644739,0.8956764,41.51916,-37.70635,-10.45396,986.1208
2.345679760,-13.9939,-17.89952,-74.62834,-0.1069685,0.08893861,0.8484449,41.51916,-37.70635,-10.45396,986.1208
2.350596905,-9.419156,-31.6459,-80.17537,-0.05261452,0.05120498,0.8317374,41.51916,-37.70635,-10.45396,986.1208
2.355515003,-5.091694,-44.62201,-85.60048,0.0118581,0.04808933,0.8204266,41.51916,-37.70635,-10.45396,986.1208
2.360433578,-2.309754,-56.11683,-89.86742,0.05236405,0.03029753,0.8001024,41.51916,-37.70635,-10.45396,986.1208
2.365349769,-0.02238137,-66.60437,-92.30567,0.07543204,0.02745404,0.8066193,42.2421,-34.47399,-10.35309,986.1217
2.370267391,1.584962,-75.96613,-94.56105,0.08898553,0.01916721,0.7868211,42.2421,-34.47399,-10.35309,986.1217
2.375188351,2.759559,-85.3279,-95.53635,0.09483807,0.006232354,0.7771332,42.2421,-34.47399,-10.35309,986.1217
2.380102634,3.748693,-94.51189,-96.14591,0.1067188,-0.0209387,0.7751935,42.2421,-34.47399,-10.35309,986.1217
2.387478828,4.552364,-108.199,-95.23158,0.1301869,-0.03710802,0.7642861,42.2421,-34.47399,-10.35309,986.1217
2.392396927,5.294215,-116.9683,-92.06184,0.141651,-0.04465308,0.7819149,42.2421,-34.47399,-10.35309,986.1217
2.397314072,4.24326,-124.6117,-89.68455,0.1629473,-0.05994456,0.7492046,42.2421,-34.47399,-10.35309,986.1217
2.402232170,4.305081,-132.433,-84.07657,0.173501,-0.06955697,0.7726009,42.2421,-34.47399,-10.35309,986.1217
2.407149315,3.686872,-138.6544,-79.93154,0.1413773,-0.06341516,0.7419873,42.2421,-34.47399,-10.35309,986.1209
2.412067413,4.181439,-145.8831,-74.38452,0.1200331,-0.07214086,0.7549922,42.91702,-30.09439,-13.47664,986.1209
2.416984558,3.501409,-152.4008,-67.61837,0.09752098,-0.05784887,0.7624326,42.91702,-30.09439,-13.47664,986.1209
2.421901703,2.697738,-157.7334,-62.07135,0.08681595,-0.07010446,0.760671,42.91702,-30.09439,-13.47664,986.1209
2.426819801,3.254126,-162.118,-57.07294,0.1010031,-0.1008444,0.7420897,42.91702,-30.09439,-13.47664,986.1209
2.431736946,3.995976,-167.0952,-47.13706,0.0746589,-0.08674195,0.7578096,42.91702,-30.09439,-13.47664,986.1209
2.436655044,4.799648,-171.6575,-38.72509,0.0688203,-0.0709189,0.8214844,42.91702,-30.09439,-13.47664,986.1209
2.441572189,-3.298889,-177.9975,-31.28843,-0.03407232,-0.1573298,0.6991457,42.91702,-30.09439,-13.47664,986.1209
2.448948860,15.0001,-182.2043,-22.44976,0.08130125,-0.169661,0.7871418,42.91702,-30.09439,-13.47664,986.1232
2.453866005,14.87645,-183.8634,-6.844951,-0.008581256,-0.01061159,0.8459022,42.91702,-30.09439,-13.47664,986.1232
2.458784103,9.930782,-190.0848,-1.115059,-0.1498346,0.04145104,0.8375635,42.91702,-30.09439,-13.47664,986.1232
2.463701248,7.643409,-194.5287,-0.8712342,-0.1811472,-0.03740156,0.7881954,42.44599,-25.63936,-18.58192,986.1232
2.468618870,9.80714,-199.1503,4.858657,-0.15938,-0.05407834,0.8035048,42.44599,-25.63936,-18.58192,986.1232
2.473536491,9.065289,-202.2906,10.34472,-0.2058248,-0.03716938,0.8160809,42.44599,-25.63936,-18.58192,986.1232
2.478454113,9.003469,-206.3197,15.89175,-0.2396712,-0.04063274,0.8546048,42.44599,-25.63936,-18.58192,986.1232
2.483371734,8.632544,-209.1638,19.79295,-0.272041,-0.04364072,0.8436068,42.44599,-25.63936,-18.58192,986.1232
2.488289356,8.261619,-211.5931,23.6332,-0.2947104,-0.05265178,0.8711794,42.44599,-25.63936,-18.58192,986.1181
2.493206978,8.447081,-213.5484,26.5591,-0.3368815,-0.04461929,0.8649855,42.44599,-25.63936,-18.58192,986.1181
2.498124599,11.22902,-214.615,28.5097,-0.3449145,-0.03221445,0.9018643,42.44599,-25.63936,-18.58192,986.1181
2.503042221,9.436215,-216.037,25.5838,-0.3124148,-0.1017387,0.983366,42.44599,-25.63936,-18.58192,986.1181
2.510418415,9.992603,-220.1846,42.16391,-0.4512899,-0.02256714,0.8831397,38.37423,-22.9848,-23.81504,986.1181
2.515336037,14.50553,-222.5547,39.17705,-0.4870187,-0.03050754,0.9773721,38.37423,-22.9848,-23.81504,986.1181
2.520253658,16.66926,-225.3395,41.98104,-0.5140615,-0.04539837,1.004307,38.37423,-22.9848,-23.81504,986.1181
2.525170803,19.4512,-230.6129,43.5659,-0.5186555,-0.03446107,0.9911,38.37423,-22.9848,-23.81504,986.1181
2.530088901,20.99672,-234.9975,42.52964,-0.5393519,-0.04396905,1.020097,38.37423,-22.9848,-23.81504,986.1191
2.535006046,24.14959,-238.0786,39.90852,-0.557234,-0.07540008,1.02312,38.37423,-22.9848,-23.81504,986.1191
2.539927959,29.52801,-240.6857,39.72565,-0.5591363,-0.07503921,1.028974,38.37423,-22.9848,-23.81504,986.1191
2.544841289,32.92815,-241.1005,37.34836,-0.5762633,-0.07421019,1.028656,38.37423,-22.9848,-23.81504,986.1191
2.549759388,36.63741,-240.2709,35.7635,-0.5756389,-0.07832278,1.040171,38.37423,-22.9848,-23.81504,986.1191
2.554676533,42.26311,-239.1452,34.97107,-0.5354446,-0.1365021,0.9627183,38.37423,-22.9848,-23.81504,986.1191
2.559593677,43.68499,-233.694,51.795,-0.4494149,0.00191192,1.346624,38.37423,-22.9848,-23.81504,986.1191
2.564511776,34.96824,-223.7397,63.98626,-0.7029117,0.03650017,1.150744,34.25874,-22.0556,-28.65379,986.1191
2.569428921,32.86633,-223.9767,66.24165,-0.877555,-0.01313228,1.269542,34.25874,-22.0556,-28.65379,986.1158
2.576805591,38.24475,-229.3094,71.42293,-0.9940487,0.04147752,1.345079,34.25874,-22.0556,-28.65379,986.1158
2.581722736,35.33916,-229.0724,63.01096,-1.021834,0.3177563,1.37213,34.25874,-22.0556,-28.65379,986.1158
2.586640835,20.44033,-227.8873,73.67831,-1.034824,0.04341356,1.378492,34.25874,-22.0556,-28.65379,986.1158
2.591557979,24.70597,-224.0952,68.61894,-1.105407,0.1076731,1.351514,34.25874,-22.0556,-28.65379,986.1158
2.596476078,18.83299,-232.4497,68.80181,-1.011015,0.1374911,1.470652,34.25874,-22.0556,-28.65379,986.1158
2.601393223,7.087021,-225.0433,73.25162,-0.9852871,-0.04416931,1.338863,34.25874,-22.0556,-28.65379,986.1158
2.606311321,5.356036,-229.1316,73.37354,-1.080444,0.1203722,1.310446,34.25874,-22.0556,-28.65379,986.1184
2.611231804,-1.135157,-221.3104,68.37511,-1.079697,0.004203452,1.367407,29.88443,-23.19289,-35.66563,986.1184
2.616146564,-4.597127,-218.8811,68.49703,-1.0635,0.01480065,1.278276,29.88443,-23.19289,-35.66563,986.1184
2.621063709,-9.048231,-213.9632,61.12132,-1.048269,0.0258945,1.292101,29.88443,-23.19289,-35.66563,986.1184
2.625981331,-14.98304,-203.2979,64.41296,-1.039616,-0.07591642,1.31547,29.88443,-23.19289,-35.66563,986.1184
2.630898952,-16.28127,-198.9725,66.48547,-1.117852,-0.0521017,1.230936,29.88443,-23.19289,-35.66563,986.1184
2.638275146,-17.14677,-197.7283,63.86435,-1.213589,-0.1712619,1.323552,29.88443,-23.19289,-35.66563,986.1184
2.643193245,-16.3431,-192.3364,69.89902,-1.444457,-0.1241872,1.148765,29.88443,-23.19289,-35.66563,986.1184
2.648110390,-9.790082,-196.958,73.37354,-1.52469,-0.06171422,1.134432,29.88443,-23.19289,-35.66563,986.1193
2.653028488,-3.731635,-195.4767,75.20222,-1.504958,0.05429804,1.121482,29.88443,-23.19289,-35.66563,986.1193
2.657945633,-2.371575,-192.9289,75.38509,-1.502086,0.221672,1.014666,29.88443,-23.19289,-35.66563,986.1193
2.662863731,-5.648083,-187.6555,73.0078,-1.582254,0.3192186,1.028648,21.42601,-24.07269,-40.1869,986.1193
2.667780876,-6.946321,-184.9892,70.08189,-1.750884,0.3497775,0.957696,21.42601,-24.07269,-40.1869,986.1193
2.672698498,-4.597127,-174.3831,59.5974,-1.872608,0.3175898,0.6401233,21.42601,-24.07269,-40.1869,986.1193
2.677616119,0.5340067,-170.9465,48.80814,-1.822199,0.1704285,0.5529359,21.42601,-24.07269,-40.1869,986.1193
2.682533264,8.879827,-163.2438,41.31052,-1.681926,-0.01138882,0.3799023,21.42601,-24.07269,-40.1869,986.1193
2.687451363,19.4512,-153.9413,34.7882,-1.566272,-0.154994,0.2641324,21.42601,-24.07269,-40.1869,986.1142
2.692368507,31.25899,-141.854,30.33839,-1.55799,-0.1799742,0.143822,21.42601,-24.07269,-40.1869,986.1142
2.697286606,36.69923,-130.2999,25.46189,-1.520294,-0.1623494,0.1581582,21.42601,-24.07269,-40.1869,986.1142
2.702207565,36.76105,-115.0722,21.74355,-1.606451,-0.1456538,0.05938046,21.42601,-24.07269,-40.1869,986.1142
2.707121849,35.52463,-101.9776,18.33,-1.71429,-0.1153147,0.002974075,21.42601,-24.07269,-40.1869,986.1142
2.714497566,28.41523,-80.82477,13.51445,-1.809958,-0.09538861,-0.1165001,12.38691,-25.36117,-41.46262,986.1142
2.719415665,22.97499,-66.90063,10.6495,-1.831889,-0.1145607,-0.1708291,12.38691,-25.36117,-41.46262,986.1142
2.724332809,17.16383,-51.02119,7.540734,-1.831369,-0.1204234,-0.2220025,12.38691,-25.36117,-41.46262,986.1142
2.729250431,12.71272,-35.43801,3.883357,-1.791252,-0.09551966,-0.2564918,12.38691,-25.36117,-41.46262,986.1136
2.734168053,7.0252,-18.96605,-0.4445401,-1.779425,-0.04497825,-0.2671067,12.38691,-25.36117,-41.46262,986.1136
2.739085674,1.090395,-3.264366,-6.357301,-1.816467,0.009389477,-0.270886,12.38691,-25.36117,-41.46262,986.1136
2.744003296,0.7812902,7.697189,-6.052519,-1.64007,0.2089691,-0.1664001,12.38691,-25.36117,-41.46262,986.1136
2.748920917,-8.30638,33.2939,-27.99678,-1.724205,0.2439232,-0.145653,12.38691,-25.36117,-41.46262,986.1136
2.753838539,-16.52856,47.27729,-27.38722,-1.722409,0.251921,-0.2590265,12.38691,-25.36117,-41.46262,986.1136
2.758756161,-14.73575,59.60163,-35.79919,-1.601183,0.2286045,-0.1287035,6.916683,-25.70897,-40.65567,986.1136
2.763673782,-14.67393,76.25134,-38.90796,-1.579613,0.3477766,-0.1012684,6.916683,-25.70897,-40.65567,986.1136
2.768591404,-15.72489,92.48629,-41.52908,-1.533929,0.5006499,0.01298898,6.916683,-25.70897,-40.65567,986.1128
2.773508549,-19.74325,116.8387,-37.44501,-1.470869,0.5331635,0.1815089,6.916683,-25.70897,-40.65567,986.1128
2.778426170,-22.09244,163.2328,-21.53542,-1.367993,0.557405,0.2639827,6.916683,-25.70897,-40.65567,986.1128
2.785802364,18.77117,185.2744,-53.17173,2.056533,-0.8623849,1.548882,6.916683,-25.70897,-40.65567,986.1128
2.790720463,127.6996,279.0697,-70.60523,4.020411,-1.360539,3.891543,6.916683,-25.70897,-40.65567,986.1128
2.795637608,113.9753,306.918,-39.09083,1.610194,0.8096362,3.359905,6.916683,-25.70897,-40.65567,986.1128
2.800555706,-51.89011,316.102,-27.50913,-1.51028,0.9676688,2.348139,6.916683,-25.70897,-40.65567,986.1128
2.805472851,-135.101,337.1956,-29.21591,-3.40071,-0.5489522,0.4525164,6.916683,-25.70897,-40.65567,986.1128
2.810394764,-46.26441,274.9814,-58.96258,-3.960333,-1.690288,-0.4082924,7.669117,-25.72806,-40.27097,986.1137
2.815308094,100.4366,212.1154,-64.81438,-1.742516,-1.790947,0.05532771,7.669117,-25.72806,-40.27097,986.1137
2.820226192,138.271,178.9937,-28.60635,-1.413968,0.01621146,1.556495,7.669117,-25.72806,-40.27097,986.1137
2.825143337,103.2185,158.2556,-18.97525,-2.022071,1.044994,1.260423,7.669117,-25.72806,-40.27097,986.1137
2.830060482,103.0949,141.4874,-27.93583,-2.448953,1.866331,1.370374,7.669117,-25.72806,-40.27097,986.1137
2.834978580,60.87119,104.8106,-19.21908,-1.936482,2.2635,1.449305,7.669117,-25.72806,-40.27097,986.1137
2.839895725,9.436215,89.5237,-7.51547,-0.9843959,2.161271,1.059011,7.669117,-25.72806,-40.27097,986.1137
2.847272396,-59.49408,118.7348,-5.260087,-0.1402799,0.9300579,1.156326,7.669117,-25.72806,-40.27097,986.1147
2.852189541,-78.72038,135.9177,3.029969,-0.2882479,0.1038033,0.7241703,7.669117,-25.72806,-40.27097,986.1147
2.857107639,-71.11641,132.6589,-5.503912,-0.6814141,-0.2430597,0.6720921,7.669117,-25.72806,-40.27097,986.1147
2.862024784,-48.55178,114.5279,-21.77924,-0.9777643,-0.4858727,0.5793429,16.4474,-25.23243,-35.31332,986.1147
2.866942883,-23.26704,98.3522,-31.89799,-1.172179,-0.3530616,0.687159,16.4474,-25.23243,-35.31332,986.1147
2.871860027,-8.368201,79.74718,-34.45815,-0.9554991,-0.3009902,0.7700767,16.4474,-25.23243,-35.31332,986.1147
2.876778126,-1.691545,76.31059,-26.59479,-0.8275452,-0.1158023,0.8128358,16.4474,-25.23243,-35.31332,986.1147
2.881695271,-0.6405903,67.00808,-16.71987,-0.7132488,0.06871068,0.8590841,16.4474,-25.23243,-35.31332,986.1147
2.886612892,-7.379067,62.3272,-10.13659,-0.6812906,0.09236476,1.043112,16.4474,-25.23243,-35.31332,986.1147
2.891530514,-14.17937,55.63177,-7.881208,-0.7647824,-0.07406168,0.9054251,16.4474,-25.23243,-35.31332,986.1153
2.896448135,-8.368201,47.7513,-9.100333,-0.719103,-0.3126637,0.8804063,16.4474,-25.23243,-35.31332,986.1153
2.901365757,3.686872,38.86355,-6.783995,-0.600306,-0.3631434,0.7418631,16.4474,-25.23243,-35.31332,986.1153
2.906283379,15.6183,33.23465,-4.772437,-0.5783829,-0.2807907,0.8341476,16.4474,-25.23243,-35.31332,986.1153
2.911201000,22.48042,29.44254,-0.01784608,-0.620699,-0.05267223,0.7956831,20.06136,-25.26307,-35.30551,986.1153
2.916118622,27.7352,22.21384,2.664231,-0.5208117,0.07724414,0.9374061,20.06136,-25.26307,-35.30551,986.1153
2.923494816,20.99672,24.40615,6.504477,-0.5017545,0.1179064,0.8589257,20.06136,-25.26307,-35.30551,986.1153
2.928412437,17.72021,25.17642,9.064641,-0.5459296,0.1231418,0.8968423,20.06136,-25.26307,-35.30551,986.1119
2.933330059,21.36765,18.71799,8.211253,-0.5325824,0.110407,0.8021307,20.06136,-25.26307,-35.30551,986.1119
2.938247681,20.37851,18.30323,9.491335,-0.4521875,0.08622004,0.907513,20.06136,-25.26307,-35.30551,986.1119
2.943164825,20.00759,18.18473,8.820816,-0.4811061,0.0720778,0.8417497,20.06136,-25.26307,-35.30551,986.1119
2.948082924,21.05854,18.955,10.89333,-0.4870567,0.07318994,0.9355425,20.06136,-25.26307,-35.30551,986.1119
2.953000069,24.95326,14.39262,10.71046,-0.5364296,0.1801403,0.8009994,20.06136,-25.26307,-35.30551,986.1119
2.957918167,24.70597,14.51113,6.382565,-0.4431449,0.1224637,0.9037455,22.25199,-24.64977,-34.06708,986.1119
2.962835312,23.40774,14.98514,8.576991,-0.4706856,0.1851721,0.8758789,22.25199,-24.64977,-34.06708,986.1119
2.967753410,21.86222,16.52568,6.443521,-0.4363594,0.1496669,0.9647684,22.25199,-24.64977,-34.06708,986.1145
2.972670555,23.9023,14.15562,7.296909,-0.5086422,0.203707,0.8058967,22.25199,-24.64977,-34.06708,986.1145
2.980047226,20.44033,15.3999,6.62639,-0.4677799,0.1230745,0.885517,22.25199,-24.64977,-34.06708,986.1145
2.984964371,20.99672,14.57038,8.211253,-0.5469291,0.1645974,0.818552,22.25199,-24.64977,-34.06708,986.1145
2.989882469,21.67675,14.51113,7.784559,-0.4839697,0.1186868,0.8777406,22.25199,-24.64977,-34.06708,986.1145
2.994799614,21.12036,16.76269,10.40568,-0.5107828,0.1905857,0.880266,22.25199,-24.64977,-34.06708,986.1145
2.999716759,21.12036,16.46643,9.91803,-0.5194651,0.1536074,0.8194308,22.25199,-24.64977,-34.06708,986.1145
3.004634857,22.04768,16.05167,11.56385,-0.4912609,0.1754102,0.8665097,22.25199,-24.64977,-34.06708,986.1145
3.009552002,19.26574,17.65146,11.62481,-0.4927413,0.193241,0.8253376,22.27207,-25.36234,-32.87456,986.1154
3.014470100,19.32756,16.76269,11.86863,-0.4931397,0.2137965,0.8473634,22.27207,-25.36234,-32.87456,986.1154
3.019387245,16.29833,18.06623,12.23437,-0.5029342,0.2219306,0.8511034,22.27207,-25.36234,-32.87456,986.1154
3.024305344,15.3092,18.54024,12.53915,-0.4910995,0.1871332,0.8396943,22.27207,-25.36234,-32.87456,986.1154
3.029222488,15.43284,19.0735,13.08776,-0.5122724,0.1833609,0.8227534,22.27207,-25.36234,-32.87456,986.1154
3.034140587,14.25824,18.77724,12.35628,-0.5202398,0.1623698,0.845937,22.27207,-25.36234,-32.87456,986.1154
3.039057732,16.11287,17.29595,12.23437,-0.5229519,0.153216,0.8126494,22.27207,-25.36234,-32.87456,986.1154
3.046434402,17.04018,14.51113,11.0762,-0.5373359,0.1881908,0.8134032,22.27207,-25.36234,-32.87456,986.1154
3.051352024,14.62917,10.30426,9.186554,-0.5664619,0.2294147,0.7600986,22.27207,-25.36234,-32.87456,986.1181
3.056269169,16.11287,10.71902,7.174996,-0.4482647,0.1821452,0.8658872,22.27487,-25.72899,-32.8858,986.1181
3.061187267,16.17469,11.13378,6.077783,-0.500021,0.2161898,0.7945733,22.27487,-25.72899,-32.8858,986.1181
3.066104412,16.54562,10.06725,4.066226,-0.5093259,0.2171168,0.8446895,22.27487,-25.72899,-32.8858,986.1181
3.071022511,16.17469,10.24501,3.33475,-0.4987652,0.2142194,0.8221753,22.27487,-25.72899,-32.8858,986.1181
3.075939655,15.55648,10.36351,1.993711,-0.4826563,0.2163514,0.8201693,22.27487,-25.72899,-32.8858,986.1181
3.080857754,15.74195,10.36351,1.323192,-0.4792915,0.2343352,0.8250882,22.27487,-25.72899,-32.8858,986.1181
3.085775375,14.75281,10.48202,0.408848,-0.4739092,0.2338965,0.82503,22.27487,-25.72899,-32.8858,986.1181
3.090692997,13.64004,10.54127,0.1650228,-0.4787385,0.2371099,0.8334267,22.27487,-25.72899,-32.8858,986.1148
3.095610142,12.21815,11.37079,-0.3835838,-0.4848741,0.2183038,0.8450124,22.27487,-25.72899,-32.8858,986.1148
3.100527287,10.36353,12.20031,-0.3226275,-0.4931225,0.1973694,0.8390681,22.27487,-25.72899,-32.8858,986.1148
3.105445385,9.868961,12.25957,-0.6883653,-0.5029768,0.1786162,0.8200973,22.66736,-26.85973,-32.08867,986.1148
3.110362530,9.003469,12.14106,-0.9931468,-0.4901781,0.153016,0.8128595,22.66736,-26.85973,-32.08867,986.1148
3.117739201,11.1672,11.13378,-0.7493216,-0.4784963,0.1763732,0.8212811,22.66736,-26.85973,-32.08867,986.1148
3.122656345,11.10538,11.37079,-0.6883653,-0.4957451,0.2131169,0.8303693,22.66736,-26.85973,-32.08867,986.1148
3.127574444,10.73445,11.07453,-1.785578,-0.4984882,0.2353642,0.8131403,22.66736,-26.85973,-32.08867,986.1148
3.132491589,10.73445,10.77827,-3.126617,-0.4887632,0.2471326,0.814409,22.66736,-26.85973,-32.08867,986.1158
3.137409687,9.683498,10.48202,-4.711481,-0.4818924,0.271257,0.8316342,22.66736,-26.85973,-32.08867,986.1158
3.142326832,8.261619,10.60052,-6.966864,-0.4883461,0.2733124,0.8230134,22.66736,-26.85973,-32.08867,986.1158
3.147244930,6.901558,10.06725,-8.978421,-0.5012826,0.2784434,0.8033772,22.66736,-26.85973,-32.08867,986.1158
3.152162075,-4.906232,0.5869911,-10.62424,-0.6426149,0.3851218,0.7696002,22.66736,-26.85973,-32.08867,986.1158
3.157079697,0.4721858,9.415486,-13.97684,-0.3953749,0.2060894,0.8366032,23.04827,-27.18119,-31.71414,986.1158
3.162002087,-0.08420226,9.296983,-15.68361,-0.4972565,0.2748855,0.8129408,23.04827,-27.18119,-31.71414,986.1158
3.166920662,-1.382441,10.18576,-17.39039,-0.5019656,0.2691894,0.8283339,23.04827,-27.18119,-31.71414,986.1158
3.171832562,-1.011516,10.12651,-18.60951,-0.5043789,0.264284,0.828682,23.04827,-27.18119,-31.71414,986.1184
3.176750183,-3.731635,11.96331,-19.52386,-0.4972608,0.254686,0.9016315,23.04827,-27.18119,-31.71414,986.1184
3.181667805,-5.215336,11.07453,-20.31629,-0.5265459,0.2388141,0.7459919,23.04827,-27.18119,-31.71414,986.1184
3.189043999,-6.513575,12.08181,-20.8649,-0.5472426,0.2452186,0.7847244,23.04827,-27.18119,-31.71414,986.1184
3.193961620,-8.244559,10.12651,-20.98681,-0.5523632,0.2393911,0.8588663,23.04827,-27.18119,-31.71414,986.1184
3.198879242,-8.98641,11.78555,-20.68203,-0.5217729,0.1904272,0.8055787,23.04827,-27.18119,-31.71414,986.1184
3.203796864,-11.15014,11.25229,-20.68203,-0.5026615,0.1490809,0.8346849,23.04827,-27.18119,-31.71414,986.1184
3.208714485,-13.6848,12.14106,-19.15812,-0.5564783,0.1428268,0.778604,23.05066,-26.88841,-31.32168,986.1211
3.213632107,-11.70653,7.815692,-18.12186,-0.4365924,0.0618752,0.8866976,23.05066,-26.88841,-31.32168,986.1211
3.218549728,-12.44838,12.08181,-15.25692,-0.6402887,0.1688962,0.6752522,23.05066,-26.88841,-31.32168,986.1211
3.223466873,-10.90286,8.348957,-14.22066,-0.5312671,0.1170016,0.8411741,23.05066,-26.88841,-31.32168,986.1211
3.228384972,-11.27378,7.993447,-12.51389,-0.5322185,0.1444038,0.8100153,23.05066,-26.88841,-31.32168,986.1211
3.233304024,-11.64471,7.993447,-11.11189,-0.5568305,0.145935,0.7947292,23.05066,-26.88841,-31.32168,986.1211
3.238220215,-11.52107,6.571407,-10.38042,-0.5434203,0.1268547,0.8042036,23.05066,-26.88841,-31.32168,986.1211
3.243137360,-12.01563,6.038142,-8.917465,-0.5683222,0.1304104,0.8108339,23.05066,-26.88841,-31.32168,986.1211
3.248055458,-11.0265,4.734606,-7.759295,-0.5414312,0.1301846,0.809635,23.05066,-26.88841,-31.32168,986.1211
3.252972603,-9.480977,2.186785,-7.698339,-0.5015252,0.1024972,0.8225002,23.05066,-26.88841,-31.32168,986.1176
3.260349274,-13.93208,2.601547,-6.113475,-0.5629873,0.1517604,0.8192432,24.1024,-26.51799,-31.69125,986.1176
3.265266419,-13.25205,1.594269,-3.919049,-0.5130292,0.1872673,0.8481327,24.1024,-26.51799,-31.69125,986.1176
3.270184517,-15.78671,1.120256,-5.077219,-0.5200959,0.1851945,0.7733518,24.1024,-26.51799,-31.69125,986.1176
3.275101662,-17.70316,0.5277395,-3.797136,-0.5714214,0.2290643,0.8543218,24.1024,-26.51799,-31.69125,986.1176
3.280018807,-19.37232,-2.197836,-7.698339,-0.4955966,0.1829152,0.7764764,24.1024,-26.51799,-31.69125,986.1176
3.284936905,-22.33972,-0.2425319,-6.966864,-0.6424231,0.2406263,0.802352,24.1024,-26.51799,-31.69125,986.1176
3.289854050,-23.7616,-4.804909,-8.551727,-0.516714,0.1988278,0.8281412,24.1024,-26.51799,-31.69125,986.12
3.294772148,-28.15089,-4.390147,-10.13659,-0.5376095,0.1785899,0.7791103,24.1024,-26.51799,-31.69125,986.12
3.299689293,-27.53268,-6.049193,-9.344159,-0.5473824,0.1982769,0.8429412,24.1024,-26.51799,-31.69125,986.12
3.304607391,-30.31462,-7.352729,-11.53859,-0.5509833,0.1648341,0.8040268,24.47065,-25.78787,-31.66797,986.12
3.309524536,-29.44913,-9.248781,-11.96528,-0.56563,0.1661001,0.8075863,24.47065,-25.78787,-31.66797,986.12
3.314442158,-31.30375,-11.26334,-12.69675,-0.5542503,0.1702894,0.8236499,24.47065,-25.78787,-31.66797,986.12
3.319359779,-32.9111,-13.33714,-11.84337,-0.5544406,0.156211,0.8460202,24.47065,-25.78787,-31.66797,986.12
3.326736450,-39.34047,-14.22592,-11.78241,-0.5238445,0.1549935,0.8734056,24.47065,-25.78787,-31.66797,986.12
3.331654072,-42.06059,-15.82572,-10.31946,-0.5331488,0.1592509,0.8240938,24.47065,-25.78787,-31.66797,986.1226
3.336571216,-42.61698,-17.42551,-9.709897,-0.509949,0.1098874,0.8665044,24.47065,-25.78787,-31.66797,986.1226
3.341489315,-46.32623,-18.01803,-7.698339,-0.5335609,0.1041524,0.8490351,24.47065,-25.78787,-31.66797,986.1226
3.346406460,-41.68966,-17.1885,-7.820251,-0.4879999,0.03403584,0.8643779,24.47065,-25.78787,-31.66797,986.1226
3.351324558,-35.63121,-13.75191,-6.905907,-0.4448321,-0.001507604,0.855601,24.47065,-25.78787,-31.66797,986.1226
3.356241703,-25.92533,-8.952523,-4.284787,-0.4756837,0.03397415,0.8734999,24.45291,-25.38083,-32.86985,986.1226
3.361159801,-23.01975,-6.167696,-4.528612,-0.4926877,0.1218196,0.8885944,24.45291,-25.38083,-32.86985,986.1226
3.366076946,-24.99802,-3.323617,-4.22383,-0.5138172,0.1478592,0.8944581,24.45291,-25.38083,-32.86985,986.1226
3.370995045,-23.94707,-1.783075,-4.955306,-0.4802716,0.1206017,0.9073893,24.45291,-25.38083,-32.86985,986.1209
3.375912189,-23.94707,1.061004,-6.174432,-0.5143698,0.1383331,0.8820188,24.45291,-25.38083,-32.86985,986.1209
3.383288860,-22.64883,6.215897,-7.149732,-0.4927838,0.1326334,0.9360387,24.45291,-25.38083,-32.86985,986.1209
3.388206005,-19.3105,10.12651,-6.905907,-0.4433778,0.108467,0.921749,24.45291,-25.38083,-32.86985,986.1209
3.393124103,-19.49596,14.57038,-8.734596,-0.4673723,0.08325809,0.954154,24.45291,-25.38083,-32.86985,986.1209
3.398041248,-16.03399,19.42901,-5.382,-0.5097335,0.1393908,0.9577581,24.45291,-25.38083,-32.86985,986.1209
3.402958393,-16.96131,24.10989,-5.991563,-0.4622368,0.09633331,0.9875475,24.06639,-24.32608,-33.22191,986.1209
3.407876491,-15.53942,30.44982,-4.772437,-0.389463,0.09092833,1.024163,24.06639,-24.32608,-33.22191,986.1209
3.412793636,-15.91035,39.69308,-2.456098,-0.4381929,0.0395427,1.062244,24.06639,-24.32608,-33.22191,986.1218
3.417711735,-15.41578,48.28456,1.323192,-0.4559251,0.08446836,1.076939,24.06639,-24.32608,-33.22191,986.1218
3.422628879,-15.35396,55.75027,2.420405,-0.4289529,0.07012548,1.126268,24.06639,-24.32608,-33.22191,986.1218
3.427546978,-17.51769,65.64529,3.700488,-0.415235,-0.02184982,1.173702,24.06639,-24.32608,-33.22191,986.1218
3.432464123,-15.91035,77.37712,5.773002,-0.3869855,-0.03531112,1.254609,24.06639,-24.32608,-33.22191,986.1218
3.437382221,-9.480977,96.15989,5.224395,-0.3260496,0.07895084,1.354393,24.06639,-24.32608,-33.22191,986.1218
3.444757938,4.24326,131.8294,-2.151316,-0.3101124,0.257385,1.392029,24.06639,-24.32608,-33.22191,986.1218
3.449676037,12.03269,155.53,-9.039377,-0.2240641,0.187375,1.446856,24.06639,-24.32608,-33.22191,986.1218
3.454593181,38.67749,185.0966,-17.63421,-0.01777044,-0.04098613,1.498048,25.18427,-23.24841,-32.80268,986.1201
3.459510803,81.70483,227.2245,-23.36411,0.1040164,-0.2756287,1.506034,25.18427,-23.24841,-32.80268,986.1201
3.464428425,124.5467,264.079,-20.19438,-0.04484878,-0.2573593,1.397625,25.18427,-23.24841,-32.80268,986.1201
3.469346046,152.1806,286.2392,-12.75771,-0.008973994,-0.1176258,1.297906,25.18427,-23.24841,-32.80268,986.1201
3.474263668,169.8614,316.813,-4.833393,-0.5112245,0.1323653,1.35714,25.18427,-23.24841,-32.80268,986.1201
3.479181290,152.7989,328.2486,1.384149,-0.6380838,0.5476253,1.390431,25.18427,-23.24841,-32.80268,986.1201
3.484098911,131.6561,335.9513,-10.6852,-0.4746795,0.4945874,1.565096,25.18427,-23.24841,-32.80268,986.1201
3.489016533,96.66549,356.4524,-4.162874,-0.5578877,0.5463291,1.133855,25.18427,-23.24841,-32.80268,986.1201
3.493934154,82.26122,351.0012,-3.187573,-0.3990875,0.3875612,1.222626,25.18427,-23.24841,-32.80268,986.1211
3.498851776,55.06003,343.417,6.016827,-0.3807124,0.3240002,1.161687,25.18427,-23.24841,-32.80268,986.1211
3.503768921,22.85135,336.8401,14.91645,-0.5658212,0.3247305,1.138953,28.88313,-23.50866,-25.89925,986.1211
3.508687019,10.73445,325.523,15.03836,-0.5227641,0.2846212,1.217427,28.88313,-23.50866,-25.89925,986.1211
3.513604164,-3.793456,316.8723,34.84915,-0.5457615,0.4950387,1.091811,28.88313,-23.50866,-25.89925,986.1211
3.520980835,-28.64545,330.3224,16.44035,-0.6912652,0.3067126,1.103961,28.88313,-23.50866,-25.89925,986.1211
3.525897980,-30.5619,318.235,16.3794,-0.9617771,0.1332636,1.095765,28.88313,-23.50866,-25.89925,986.1211
3.530816078,-37.17674,306.681,9.735161,-1.263961,-0.02342482,0.9072611,28.88313,-23.50866,-25.89925,986.1237
3.535733223,-12.57202,276.4626,0.9574546,-1.694301,0.2898828,1.057274,28.88313,-23.50866,-25.89925,986.1237
3.540651321,11.66177,262.5977,-5.808694,-2.029793,0.7930309,1.116458,28.88313,-23.50866,-25.89925,986.1237
3.545568466,-3.731635,253.5915,-8.673639,-2.411453,1.597588,1.544011,28.88313,-23.50866,-25.89925,986.1237
3.550486565,-18.01226,238.1861,-50.30679,-2.567642,1.937622,1.076001,28.88313,-23.50866,-25.89925,986.1237
3.555403709,-3.237068,222.2474,-91.5742,-1.591685,1.096256,1.643564,34.82848,-27.13664,-15.77025,986.1237
3.560321808,-12.57202,217.3887,-92.00089,-1.234592,0.8132599,1.16933,34.82848,-27.13664,-15.77025,986.1237
3.565238953,-24.13253,205.3607,-91.87897,-1.056471,0.5110261,1.297041,34.82848,-27.13664,-15.77025,986.1237
3.570156097,-45.52256,199.6725,-99.43755,-1.004506,0.2759299,1.114285,34.82848,-27.13664,-15.77025,986.1237
3.575074196,-52.4465,179.8825,-105.1065,-1.026987,-0.1056402,1.03426,34.82848,-27.13664,-15.77025,986.122
3.579991341,-27.34722,138.8211,-105.4722,-1.030573,-0.220162,0.8456291,34.82848,-27.13664,-15.77025,986.122
3.584909439,-1.877008,109.3138,-109.3125,-0.4167655,0.1088849,1.145861,34.82848,-27.13664,-15.77025,986.122
3.589826584,-8.862768,90.47173,-103.2778,0.0870112,0.3818694,1.210685,34.82848,-27.13664,-15.77025,986.122
3.597203255,-31.11829,113.6984,-77.6152,-0.7819887,0.4324386,1.664189,34.82848,-27.13664,-15.77025,986.122
3.602120876,-21.47423,104.9884,-75.29887,-1.002076,0.3280127,1.043104,38.58135,-27.01589,-9.302384,986.122
3.607038498,11.53813,76.31059,-75.78651,0.09337526,0.2030267,1.10148,38.58135,-27.01589,-9.302384,986.122
3.611956119,-2.557038,78.5029,-67.55741,0.07737902,0.6307376,1.277493,38.58135,-27.01589,-9.302384,986.1203
3.616873741,-22.83429,74.47379,-72.19009,-0.2471937,0.3434944,1.121888,38.58135,-27.01589,-9.302384,986.1203
3.621791363,-15.04486,58.17959,-76.45703,-0.242606,-0.01267023,0.9225293,38.58135,-27.01589,-9.302384,986.1203
3.626708507,0.2249022,41.94464,-79.26102,-0.2518635,-0.0755472,0.7860961,38.58135,-27.01589,-9.302384,986.1203
3.631626606,16.4838,23.63588,-80.9678,-0.2104278,0.03212876,0.8377619,38.58135,-27.01589,-9.302384,986.1203
3.636543751,24.82962,6.334401,-82.18693,-0.1903049,0.2269506,0.9137602,38.58135,-27.01589,-9.302384,986.1203
3.641461849,20.31669,-4.034637,-80.9678,-0.06500881,0.3084393,1.023133,38.58135,-27.01589,-9.302384,986.1203
3.646378994,12.46544,-12.38912,-80.05345,-0.08400223,0.3003773,0.9759338,38.58135,-27.01589,-9.302384,986.1203
3.653755665,7.828872,-28.38706,-78.71242,-0.07413749,0.1378113,0.884701,40.78032,-24.27075,-5.953383,986.1213
3.658672810,9.683498,-40.65215,-76.39608,-0.02192122,0.05315463,0.8203807,40.78032,-24.27075,-5.953383,986.1213
3.663590908,12.6509,-52.79874,-73.04348,0.02442802,0.04076847,0.8006674,40.78032,-24.27075,-5.953383,986.1213
3.668508053,15.37102,-64.41206,-69.3861,0.06931147,0.03897432,0.7876176,40.78032,-24.27075,-5.953383,986.1213
3.673426151,16.97836,-75.49212,-66.03351,0.08461711,0.05375895,0.760776,40.78032,-24.27075,-5.953383,986.1213
3.678343296,19.82212,-87.22395,-63.96099,0.1265516,0.01486053,0.7742363,40.78032,-24.27075,-5.953383,986.1213
3.683261394,17.34929,-94.57115,-54.26895,0.1690773,0.006608056,0.7663397,40.78032,-24.27075,-5.953383,986.1213
3.688178539,16.7929,-103.6367,-46.22272,0.1305739,0.01996732,0.7379519,40.78032,-24.27075,-5.953383,986.1213
3.693095684,15.98923,-112.5836,-38.48127,0.1460353,0.01567007,0.7663338,40.78032,-24.27075,-5.953383,986.1162
3.698013782,14.38189,-121.0566,-30.80077,0.148302,0.008319779,0.7432594,40.78032,-24.27075,-5.953383,986.1162
3.702930927,13.33093,-128.2853,-25.49758,0.1526695,-0.02147031,0.7213904,42.17743,-22.09099,-7.480947,986.1162
3.707849026,12.96001,-135.6918,-17.87804,0.1724164,-0.0283983,0.7360578,42.17743,-22.09099,-7.480947,986.1162
3.712766170,10.8581,-143.1575,-9.770853,0.1455516,-0.01616836,0.7473522,42.17743,-22.09099,-7.480947,986.1162
3.717684269,9.065289,-149.8529,-4.772437,0.1251248,-0.04743107,0.7402055,42.17743,-22.09099,-7.480947,986.1162
3.722601414,9.559857,-157.5556,1.932755,0.1065907,-0.05733852,0.7395545,42.17743,-22.09099,-7.480947,986.1162
3.727519512,12.46544,-166.8582,6.870215,0.1136072,-0.07301,0.7982296,42.17743,-22.09099,-7.480947,986.1162
3.732436657,9.065289,-170.1763,13.08776,0.08494917,-0.04184519,0.7873257,42.17743,-22.09099,-7.480947,986.1172
3.739816189,9.312573,-179.6565,19.42721,0.03755522,-0.02258962,0.8043547,42.17743,-22.09099,-7.480947,986.1172
3.744730473,8.818007,-186.3519,21.86546,-0.01006243,-0.0009762496,0.799612,42.17743,-22.09099,-7.480947,986.1172
3.749648571,6.221529,-190.6773,25.21806,-0.01711341,-0.009764095,0.874646,42.48192,-20.1711,-11.95906,986.1172
3.754565716,3.872335,-195.1212,24.54754,-0.09404309,0.04573697,0.843555,42.48192,-20.1711,-11.95906,986.1172
3.759483337,1.090395,-201.1649,29.78978,-0.1097354,-0.04157523,0.8365145,42.48192,-20.1711,-11.95906,986.1172
3.764400959,2.203171,-207.3863,31.19178,-0.193948,-0.02190113,0.8397786,42.48192,-20.1711,-11.95906,986.1172
3.769318581,1.955887,-213.2522,30.52126,-0.2104897,-0.06995225,0.8194379,42.48192,-20.1711,-11.95906,986.1172
3.774236202,4.552364,-220.7179,34.30054,-0.2309175,-0.05347755,0.8414973,42.48192,-20.1711,-11.95906,986.1181
3.779153824,2.264992,-227.2948,29.85074,-0.2628698,-0.0688366,0.9170105,42.48192,-20.1711,-11.95906,986.1181
3.784071445,4.490543,-231.3832,35.7635,-0.2570916,-0.10142,0.8367762,42.48192,-20.1711,-11.95906,986.1181
3.788989067,9.188931,-236.4196,37.2874,-0.2923307,-0.04093163,0.8715357,42.48192,-20.1711,-11.95906,986.1181
3.793906212,9.621678,-240.9227,33.44716,-0.3574454,0.07626699,0.9370051,42.48192,-20.1711,-11.95906,986.1181
3.798824310,6.839737,-243.352,37.22645,-0.3289385,-0.08863145,0.9008954,39.8412,-20.27585,-19.19069,986.1181
3.803741455,11.66177,-246.9664,37.40932,-0.3938351,-0.0340739,0.8997785,39.8412,-20.27585,-19.19069,986.1181
3.811118126,13.20729,-255.4394,34.97107,-0.524963,0.1394077,1.001582,39.8412,-20.27585,-19.19069,986.1181
3.816035747,9.683498,-256.3281,26.74197,-0.4525002,-0.1681867,0.8711977,39.8412,-20.27585,-19.19069,986.1164
3.820953369,17.16383,-261.1868,30.887,-0.4972768,-0.0836632,0.9461344,39.8412,-20.27585,-19.19069,986.1164
3.825870514,21.05854,-266.8749,30.33839,-0.5835475,0.04608153,0.9048765,39.8412,-20.27585,-19.19069,986.1164
3.830788612,17.9675,-269.3635,24.66945,-0.5346984,-0.1465907,1.084743,39.8412,-20.27585,-19.19069,986.1164
3.835705757,26.37514,-272.2668,29.85074,-0.6114838,-0.08463762,1.021813,39.8412,-20.27585,-19.19069,986.1164
3.840623856,30.08439,-280.4435,31.61847,-0.7398881,0.1857102,1.161172,39.8412,-20.27585,-19.19069,986.1164
3.845541000,23.34591,-279.0215,31.92325,-0.6463989,-0.1216668,1.081118,39.8412,-20.27585,-19.19069,986.1164
3.850459099,31.50627,-281.5101,43.13921,-0.7140146,-0.03088111,1.175379,36.13874,-19.64683,-26.14673,986.1164
3.855376244,36.20466,-282.6359,46.55276,-0.695206,0.1274709,1.244878,36.13874,-19.64683,-26.14673,986.1187
3.860294342,28.72433,-278.903,57.15915,-0.6512467,0.004099188,1.264353,36.13874,-19.64683,-26.14673,986.1187
3.865213394,29.96075,-275.4072,63.25479,-0.6598341,-0.040272,1.259602,36.13874,-19.64683,-26.14673,986.1187
3.870128632,26.62242,-278.7253,72.5811,-0.7859858,0.01539417,1.196389,36.13874,-19.64683,-26.14673,986.1187
3.877505302,28.22977,-271.3781,71.97153,-0.8888418,0.009042017,1.330066,36.13874,-19.64683,-26.14673,986.1187
3.882422447,28.53887,-276.77,78.49386,-0.9789692,0.08613063,1.363866,36.13874,-19.64683,-26.14673,986.1187
3.887340546,28.97162,-277.481,80.8102,-0.9778213,0.1133418,1.499708,36.13874,-19.64683,-26.14673,986.1187
3.892257690,22.29496,-274.8146,84.77236,-1.073225,0.2672441,1.388412,36.13874,-19.64683,-26.14673,986.1171
3.897175789,17.78204,-278.8438,84.46758,-1.035287,0.2584756,1.665545,36.13874,-19.64683,-26.14673,986.1171
3.902092934,10.61081,-268.5932,87.69826,-1.091997,0.3127843,1.447805,29.89731,-19.03868,-31.83133,986.1171
3.907011032,2.14135,-270.3708,89.16121,-1.159557,0.3156853,1.443111,29.89731,-19.03868,-31.83133,986.1171
3.911928177,-1.258799,-267.7044,95.13493,-1.198716,0.282171,1.521015,29.89731,-19.03868,-31.83133,986.1171
3.916846275,-4.906232,-256.2096,98.42657,-1.320105,0.3038915,1.423658,29.89731,-19.03868,-31.83133,986.1171
3.921763420,-1.135157,-253.8396,101.5963,-1.492366,0.2794093,1.399039,29.89731,-19.03868,-31.83133,986.1171
3.926681519,1.832245,-252.1805,109.0939,-1.736711,0.2955893,1.278723,29.89731,-19.03868,-31.83133,986.1171
3.931598663,6.530633,-252.9508,115.0067,-1.867137,0.3346433,1.37087,29.89731,-19.03868,-31.83133,986.1171
3.936516285,10.42535,-251.4102,121.0414,-1.912435,0.3998291,1.17669,29.89731,-19.03868,-31.83133,986.1179
3.941433907,11.59995,-248.2699,125.0035,-1.861162,0.4693506,1.109066,29.89731,-19.03868,-31.83133,986.1179
3.946351528,7.70523,-239.9154,124.8816,-1.801986,0.5204483,0.9873787,29.89731,-19.03868,-31.83133,986.1179
3.951269150,4.305081,-225.3988,122.3214,-1.737484,0.4439617,0.8834058,21.80533,-20.26065,-37.19305,986.1179
3.958645344,5.60332,-203.1794,116.4696,-1.810726,0.2447923,0.5202675,21.80533,-20.26065,-37.19305,986.1179
3.963563442,13.02183,-188.6035,112.2636,-1.783415,0.03736639,0.3847261,21.80533,-20.26065,-37.19305,986.1179
3.968480587,25.63329,-172.0723,107.2043,-1.798879,-0.1560463,0.1839523,21.80533,-20.26065,-37.19305,986.1179
3.973398685,41.39761,-157.9704,103.364,-1.859039,-0.3046498,-0.008705961,21.80533,-20.26065,-37.19305,986.1173
3.978315830,58.15107,-143.039,96.17119,-1.98589,-0.3695886,-0.1170501,21.80533,-20.26065,-37.19305,986.1173
3.983233929,71.2571,-126.804,89.10026,-2.175313,-0.3647924,-0.2804236,21.80533,-20.26065,-37.19305,986.1173
3.988151073,79.35564,-109.6803,81.66359,-2.368354,-0.3051666,-0.4303565,21.80533,-20.26065,-37.19305,986.1173
3.993068218,81.95212,-93.68237,74.22692,-2.580855,-0.1089962,-0.5364236,21.80533,-20.26065,-37.19305,986.1173
3.997986317,75.70821,-77.62518,57.34202,-2.639923,-0.02204597,-0.6234604,10.88917,-22.52959,-39.78162,986.1173
4.002903461,57.53287,-58.19064,40.82287,-2.483541,0.04277747,-0.546922,10.88917,-22.52959,-39.78162,986.1173
4.007821560,36.39012,-35.79352,23.93798,-2.288004,-0.02957146,-0.6532943,10.88917,-22.52959,-39.78162,986.1173
4.012738705,26.68424,-11.50034,10.52759,-2.089016,0.09869061,-0.5323445,10.88917,-22.52959,-39.78162,986.1095
4.020115376,-0.5169485,24.93942,-6.844951,-2.055151,0.3817817,-0.3973069,10.88917,-22.52959,-39.78162,986.1095
4.025032520,-19.99053,45.67749,-17.87804,-1.91249,0.3018794,-0.4122069,10.88917,-22.52959,-39.78162,986.1095
4.029950619,-28.52181,56.6983,-25.19279,-1.842112,0.588644,0.0120276,10.88917,-22.52959,-39.78162,986.1095
4.034867764,-39.83504,92.19003,-49.33149,-1.83565,0.3343718,-0.1840799,10.88917,-22.52959,-39.78162,986.1095
4.039785862,-43.23518,97.58193,-46.1008,-1.717149,0.4108337,-0.1738613,10.88917,-22.52959,-39.78162,986.1095
4.044703007,-51.33372,109.0768,-46.28367,-1.344691,0.4253279,0.1138964,10.88917,-22.52959,-39.78162,986.1095
4.049621105,-55.78483,136.5695,-43.23586,-1.151344,0.5902699,0.3827,5.120944,-24.64686,-39.02966,986.1095
4.054538250,-73.65106,161.2182,-36.8964,-0.904229,0.6712622,0.3424838,5.120944,-24.64686,-39.02966,986.1088
4.059456348,-88.67354,169.6912,-36.8964,0.5956554,-0.4613011,1.704826,5.120944,-24.64686,-39.02966,986.1088
4.064373493,30.88806,241.3264,-44.51594,2.85053,-1.462736,3.532745,5.120944,-24.64686,-39.02966,986.1088
4.069291115,271.7423,321.1384,-80.72398,5.21342,-0.7913563,5.262411,5.120944,-24.64686,-39.02966,986.1088
4.074208736,190.1387,286.0022,-103.8874,1.68216,2.11711,2.544752,5.120944,-24.64686,-39.02966,986.1088
4.081585407,-293.3625,426.1916,-62.07135,-3.138371,-0.0258305,0.5885195,5.120944,-24.64686,-39.02966,986.1088
4.086502552,-222.4539,400.0616,-92.73236,-5.881111,-1.609194,-1.325554,5.120944,-24.64686,-39.02966,986.1088
4.091420174,-46.44987,227.7578,-171.1222,-3.470145,-3.384698,-1.03229,5.120944,-24.64686,-39.02966,986.1088
4.096337795,229.3331,186.2224,-92.97619,-1.255682,-2.379007,-0.08550727,8.412505,-22.55098,-38.51003,986.1114
4.101255417,245.7157,122.3491,-3.309486,-1.58097,0.9070494,2.893488,8.412505,-22.55098,-38.51003,986.1114
4.106173039,94.25448,156.3596,23.57224,-2.588588,2.491074,2.033913,8.412505,-22.55098,-38.51003,986.1114
4.111090660,55.24549,121.2826,-14.28162,-2.360825,2.812819,0.488163,8.412505,-22.55098,-38.51003,986.1114
4.116008282,23.65502,87.03514,-39.33466,-0.6790394,1.628343,1.610406,8.412505,-22.55098,-38.51003,986.1114
4.120925903,-26.54354,102.1443,-3.309486,0.1544746,0.9699767,0.8065725,8.412505,-22.55098,-38.51003,986.1114
4.125843048,-36.68217,124.8377,8.942729,0.1098766,0.7346705,1.160632,8.412505,-22.55098,-38.51003,986.1114
4.130761147,-61.47235,139.8284,19.36625,-0.5407695,0.4017189,0.7911456,8.412505,-22.55098,-38.51003,986.1114
4.135678291,-57.39217,135.029,8.942729,-0.8067943,0.03143844,0.7217361,8.412505,-22.55098,-38.51003,986.114
4.140596390,-41.75148,125.1339,-10.38042,-1.083378,-0.07565929,0.6317193,8.412505,-22.55098,-38.51003,986.114
4.145513535,-34.45662,111.3283,-28.54539,-1.322653,-0.1426271,0.6820316,8.412505,-22.55098,-38.51003,986.114
4.152890205,-11.76835,85.31684,-42.44343,-1.048472,-0.2651046,0.7370318,17.11094,-23.0846,-35.69323,986.114
4.157807350,1.152216,69.61516,-32.20277,-0.7050462,-0.077539,0.8591831,17.11094,-23.0846,-35.69323,986.114
4.162725449,-0.7024112,62.38646,-24.7661,-0.5484508,0.09194536,0.920625,17.11094,-23.0846,-35.69323,986.114
4.167642593,-10.84104,56.46129,-19.09716,-0.5726987,0.1231771,1.012135,17.11094,-23.0846,-35.69323,986.114
4.172560692,-20.73238,56.40204,-15.62266,-0.6247484,-0.09097555,0.8595499,17.11094,-23.0846,-35.69323,986.114
4.177477837,-16.71402,51.3064,-11.29476,-0.716696,-0.3058177,0.8806061,17.11094,-23.0846,-35.69323,986.1108
4.182395935,-2.00065,40.5226,-7.149732,-0.7243049,-0.4085681,0.7385112,17.11094,-23.0846,-35.69323,986.1108
4.187313080,13.45457,33.70866,-5.930606,-0.6763314,-0.2432967,0.8949033,17.11094,-23.0846,-35.69323,986.1108
4.192231178,19.88395,27.72424,-5.016262,-0.5759346,-0.1405261,0.7682221,17.11094,-23.0846,-35.69323,986.1108
4.197148323,23.53138,24.82091,-2.821836,-0.561476,-0.01941864,0.8710356,20.79971,-22.13221,-33.99339,986.1108
4.202065468,23.28409,21.02881,1.810843,-0.5458156,0.1040962,0.8462207,20.79971,-22.13221,-33.99339,986.1108
4.206983566,19.88395,22.15459,6.504477,-0.5564298,0.1958169,0.9177089,20.79971,-22.13221,-33.99339,986.1108
4.211900711,16.23651,16.94044,4.066226,-0.4960811,0.09518924,0.8246489,20.79971,-22.13221,-33.99339,986.1108
4.216818810,18.52389,16.17017,6.748302,-0.5218274,0.06523126,0.8753664,20.79971,-22.13221,-33.99339,986.1073
4.221735954,19.01845,15.63691,10.40568,-0.5370948,0.1000158,0.8858321,20.79971,-22.13221,-33.99339,986.1073
4.229112625,19.20392,13.80011,7.60169,-0.5521277,0.1574075,0.7314534,20.79971,-22.13221,-33.99339,986.1073
4.234030247,20.6258,8.171202,3.395706,-0.4990433,0.2094926,0.8919431,20.79971,-22.13221,-33.99339,986.1073
4.238947868,15.74195,10.30426,3.273793,-0.4776344,0.2200229,0.8867641,20.79971,-22.13221,-33.99339,986.1073
4.243865490,15.49466,10.12651,2.969012,-0.496391,0.2047562,0.8597242,20.79971,-22.13221,-33.99339,986.1073
4.248783112,8.508902,5.149367,3.761444,-0.5311448,0.2396788,0.8276272,21.85617,-21.77455,-33.97986,986.1073
4.253700733,9.436215,10.12651,1.323192,-0.3953952,0.07357313,0.8546893,21.85617,-21.77455,-33.97986,986.1083
4.258618355,12.46544,9.119228,2.969012,-0.546111,0.1764857,0.8092157,21.85617,-21.77455,-33.97986,986.1083
4.263535976,10.98174,8.645215,3.761444,-0.5413523,0.1970559,0.8588752,21.85617,-21.77455,-33.97986,986.1083
4.268453121,11.78541,7.460182,1.932755,-0.5058483,0.1582179,0.814126,21.85617,-21.77455,-33.97986,986.1083
4.273371220,11.78541,6.630659,3.090925,-0.4978407,0.1849401,0.84939,21.85617,-21.77455,-33.97986,986.1083
4.278288364,9.003469,7.04542,1.749886,-0.4962144,0.1431806,0.8402692,21.85617,-21.77455,-33.97986,986.1083
4.283206463,9.992603,6.334401,2.664231,-0.5292165,0.1640698,0.8290714,21.85617,-21.77455,-33.97986,986.1083
4.290582180,8.014335,5.267871,2.359449,-0.5111035,0.1560019,0.8257509,21.85617,-21.77455,-33.97986,986.1083
4.295500279,8.508902,4.4976,2.603274,-0.5176305,0.1861642,0.8267716,21.87433,-22.84101,-33.18167,986.1066
4.300417423,6.901558,3.78658,3.029969,-0.4946942,0.2043069,0.8325059,21.87433,-22.84101,-33.18167,986.1066
4.305335522,4.305081,3.608825,1.506061,-0.490064,0.1643694,0.831673,21.87433,-22.84101,-33.18167,986.1066
4.310252667,3.995976,2.660799,2.420405,-0.4956439,0.2042436,0.8354248,21.87433,-22.84101,-33.18167,986.1066
4.315170765,1.894066,2.305289,2.115624,-0.4891425,0.2170443,0.8581165,21.87433,-22.84101,-33.18167,986.1066
4.320087910,0.5958275,2.127534,1.445105,-0.4912246,0.1994274,0.8342631,21.87433,-22.84101,-33.18167,986.1066
4.325006008,-0.3314858,1.357262,1.384149,-0.4912899,0.2077498,0.8325883,21.87433,-22.84101,-33.18167,986.1066
4.329923153,-2.433396,0.9425009,0.5917168,-0.4971181,0.1979756,0.8308662,21.87433,-22.84101,-33.18167,986.1066
4.334840298,-2.742501,0.2314812,0.2259791,-0.5059832,0.1989796,0.8251447,21.87433,-22.84101,-33.18167,986.1092
4.339759827,-3.051605,-0.2425319,0.2869354,-0.4956521,0.2057059,0.8354717,21.87433,-22.84101,-33.18167,986.1092
4.344675541,-4.288023,-0.1240286,-0.6883653,-0.5108147,0.1833924,0.8217714,22.62407,-23.21187,-33.25514,986.1092
4.349593639,-3.607993,-0.6572934,-0.3835838,-0.5054168,0.1935317,0.8298207,22.62407,-23.21187,-33.25514,986.1092
4.356970310,-5.277157,-0.5980418,-1.663666,-0.508816,0.1741673,0.8204882,22.62407,-23.21187,-33.25514,986.1092
4.361887455,-4.288023,-0.5980418,-1.480797,-0.4940249,0.1721418,0.8314691,22.62407,-23.21187,-33.25514,986.1092
4.366809368,-4.968053,-0.2425319,-1.785578,-0.4944778,0.1899088,0.846123,22.62407,-23.21187,-33.25514,986.1092
4.371722698,-6.019008,-0.06477699,-2.821836,-0.5165833,0.182183,0.8314906,22.62407,-23.21187,-33.25514,986.1092
4.376639843,-6.82268,-0.7757967,-3.24853,-0.5018855,0.1851587,0.8358353,22.62407,-23.21187,-33.25514,986.1119
4.381557941,-8.30638,-0.4795385,-3.797136,-0.4860129,0.1622103,0.8446799,22.62407,-23.21187,-33.25514,986.1119
4.386475086,-8.182738,-0.5387902,-3.24853,-0.4938818,0.1516158,0.833723,22.62407,-23.21187,-33.25514,986.1119
4.391393185,-8.120917,-0.8943,-2.699923,-0.4831593,0.1783035,0.8461435,22.62407,-23.21187,-33.25514,986.1119
4.396310329,-8.182738,-0.8350484,-3.004704,-0.4798047,0.1755732,0.8372889,22.62127,-22.84523,-33.2439,986.1119
4.401228428,-8.059097,-1.012803,-2.578011,-0.4818296,0.1944922,0.8417963,22.62127,-22.84523,-33.2439,986.1119
4.406145573,-8.924589,-0.5387902,-2.882792,-0.48427,0.2036222,0.8479355,22.62127,-22.84523,-33.2439,986.1119
4.411063194,-10.03736,0.0537263,-3.675224,-0.5107776,0.2059836,0.8394892,22.62127,-22.84523,-33.2439,986.1119
4.415980816,-10.90286,-0.9535517,-4.284787,-0.5020498,0.2086182,0.83319,22.62127,-22.84523,-33.2439,986.1101
4.423357487,-13.00477,-0.716545,-5.260087,-0.4891351,0.2073866,0.8529515,22.62127,-22.84523,-33.2439,986.1101
4.428274631,-14.61211,-0.8943,-6.113475,-0.494668,0.2071498,0.8369666,22.62127,-22.84523,-33.2439,986.1101
4.433192253,-16.21945,-0.9535517,-7.698339,-0.512214,0.199643,0.8388121,22.62127,-22.84523,-33.2439,986.1101
4.438109875,-18.63047,-2.849604,-8.429814,-0.516804,0.2240738,0.8342922,22.62127,-22.84523,-33.2439,986.1101
4.443027496,-21.72151,-2.968108,-9.039377,-0.5144489,0.1837876,0.850946,22.61935,-23.19911,-33.63823,986.1101
4.447945118,-23.26704,-4.567902,-9.587984,-0.510788,0.1761083,0.8200811,22.61935,-23.19911,-33.63823,986.1101
4.452862739,-24.00889,-5.21967,-10.13659,-0.4981419,0.148894,0.8467801,22.61935,-23.19911,-33.63823,986.1101
4.457780361,-25.86351,-5.634432,-9.709897,-0.5114275,0.1407333,0.8335181,22.61935,-23.19911,-33.63823,986.1108
4.462697983,-25.36895,-5.515928,-9.344159,-0.5043736,0.1013416,0.8307406,22.61935,-23.19911,-33.63823,986.1108
4.467615604,-25.86351,-6.760213,-9.100333,-0.4945916,0.1062499,0.8337309,22.61935,-23.19911,-33.63823,986.1108
4.472533226,-24.87438,-6.523206,-7.820251,-0.4858031,0.07887323,0.8153018,22.61935,-23.19911,-33.63823,986.1108
4.477450371,-23.32886,-7.174974,-9.100333,-0.5075679,0.07628001,0.8391885,22.61935,-23.19911,-33.63823,986.1108
4.482368469,-20.54692,-7.174974,-7.332601,-0.4891122,0.108518,0.8454115,22.61935,-23.19911,-33.63823,986.1108
4.487285614,-21.53605,-6.700961,-7.332601,-0.4938062,0.09845328,0.8596933,22.61935,-23.19911,-33.63823,986.1108
4.494662285,-19.00139,-6.878716,-7.149732,-0.4863939,0.08487197,0.8591971,22.24269,-22.8293,-33.6278,986.1108
4.499580383,-18.44501,-6.108445,-6.357301,-0.4911085,0.102309,0.8374603,22.24269,-22.8293,-33.6278,986.1134
4.504497528,-18.50683,-5.57518,-6.479213,-0.4749831,0.1193786,0.8971104,22.24269,-22.8293,-33.6278,986.1134
4.509414673,-19.68143,-5.21967,-5.86965,-0.4834797,0.1056489,0.8190544,22.24269,-22.8293,-33.6278,986.1134
4.514332771,-17.70316,-4.627154,-4.833393,-0.496687,0.08385862,0.8563358,22.24269,-22.8293,-33.6278,986.1134
4.519249916,-18.25954,-6.2862,-5.138175,-0.4940951,0.1057578,0.8341966,22.24269,-22.8293,-33.6278,986.1134
4.524168014,-16.03399,-5.693683,-3.980005,-0.5017009,0.1163353,0.8127491,22.24269,-22.8293,-33.6278,986.1134
4.529085159,-15.72489,-8.182252,-4.955306,-0.4734892,0.1468028,0.8659322,22.24269,-22.8293,-33.6278,986.1134
4.534003258,-17.64133,-6.167696,-5.260087,-0.4781841,0.1632378,0.8456197,22.24269,-22.8293,-33.6278,986.1134
4.538920402,-15.97217,-6.700961,-7.759295,-0.4751242,0.1403829,0.8953574,22.24269,-22.8293,-33.6278,986.1117
4.543838501,-17.27041,-4.86416,-6.723038,-0.4829772,0.1591491,0.8532965,22.59828,-21.0476,-33.95577,986.1117
4.551214218,-18.25954,-4.982664,-8.673639,-0.4956631,0.1854973,0.8726957,22.59828,-21.0476,-33.95577,986.1117
4.556132316,-19.80507,-5.456676,-10.80711,-0.4478241,0.1114061,0.9189665,22.59828,-21.0476,-33.95577,986.1117
4.561049461,-19.24868,-1.012803,-10.86807,-0.4285921,0.07701737,0.8633263,22.59828,-21.0476,-33.95577,986.1117
4.565967560,-13.74662,1.001753,-10.56328,-0.4752926,0.06647232,0.8832783,22.59828,-21.0476,-33.95577,986.1117
4.570884704,-12.57202,1.712772,-10.6852,-0.4490163,0.1012001,0.8904881,22.59828,-21.0476,-33.95577,986.1117
4.575802326,-12.57202,4.675354,-10.2585,-0.4680399,0.07588125,0.9311029,22.59828,-21.0476,-33.95577,986.1144
4.580719948,-9.542798,5.682632,-9.64894,-0.4175373,0.06690383,0.8876735,22.59828,-21.0476,-33.95577,986.1144
4.585637569,-6.080829,9.415486,-8.429814,-0.4752389,0.06106538,0.8855322,22.59828,-21.0476,-33.95577,986.1144
4.590555191,-3.731635,9.474738,-9.405115,-0.3833151,0.1101494,0.9125704,22.59828,-21.0476,-33.95577,986.1144
4.595472813,-1.444262,15.75541,-7.576427,-0.5050194,0.06361108,0.9436369,22.21611,-20.6629,-34.39228,986.1144
4.600390434,-2.433396,13.26684,-6.052519,-0.4444292,0.1457263,0.9370328,22.21611,-20.6629,-34.39228,986.1144
4.605308056,-3.113426,17.47371,-7.942164,-0.4320245,0.1136492,0.8849213,22.21611,-20.6629,-34.39228,986.1144
4.610225677,0.7812902,20.85105,-8.185989,-0.4345778,0.06471759,0.9960175,22.21611,-20.6629,-34.39228,986.1144
4.615143299,-2.618859,23.69513,-5.564869,-0.5091941,0.07950862,0.9262161,22.21611,-20.6629,-34.39228,986.1144
4.622519493,-0.826053,28.73152,-6.235388,-0.479267,0.02898965,0.9554249,22.21611,-20.6629,-34.39228,986.117
4.627437115,-1.815187,29.67955,-4.589568,-0.4662471,0.04245991,0.8936015,22.21611,-20.6629,-34.39228,986.117
4.632354736,1.028574,33.1754,-6.052519,-0.4774919,0.03128353,0.9380046,22.21611,-20.6629,-34.39228,986.117
4.637272358,-4.226202,34.53818,-1.663666,-0.5526575,0.05633309,0.9190322,22.21611,-20.6629,-34.39228,986.117
4.642189979,-1.938829,36.55274,-2.09036,-0.4381798,0.06115008,0.9245591,22.96149,-20.3637,-34.3813,986.117
4.647107601,-1.691545,38.62654,-3.675224,-0.4777164,0.03414685,0.9672304,22.96149,-20.3637,-34.3813,986.117
4.652024746,-4.349844,42.30015,2.420405,-0.5503014,0.1114946,0.9436016,22.96149,-20.3637,-34.3813,986.117
4.656942844,-5.277157,44.37395,1.749886,-0.4705042,0.08797199,0.9873472,22.96149,-20.3637,-34.3813,986.1136
4.661859989,-5.215336,49.23259,1.445105,-0.4765184,0.07132179,0.9621004,22.96149,-20.3637,-34.3813,986.1136
4.666778088,-4.226202,49.35109,-1.60271,-0.4599456,0.05327686,0.9958588,22.96149,-20.3637,-34.3813,986.1136
4.671695232,-7.317246,57.17231,4.492919,-0.5638399,0.1057914,1.007135,22.96149,-20.3637,-34.3813,986.1136
4.676613331,-7.56453,59.60163,2.908056,-0.470595,0.09202547,1.031176,22.96149,-20.3637,-34.3813,986.1136
4.681530476,-8.491843,65.46754,2.481362,-0.4571586,0.1066473,1.064065,22.96149,-20.3637,-34.3813,986.1136
4.686448574,-11.70653,72.04447,1.140324,-0.4977977,0.1126617,1.114116,22.96149,-20.3637,-34.3813,986.1136
4.691365719,-15.66307,79.98419,0.7745857,-0.4666861,0.04536173,1.15443,23.66496,-20.71757,-33.11222,986.1136
4.696282864,-20.11417,87.56841,2.603274,-0.4480348,0.002530567,1.236416,23.66496,-20.71757,-33.11222,986.1147
4.703659534,-26.97629,101.4333,6.992127,-0.4429119,0.03539947,1.28064,23.66496,-20.71757,-33.11222,986.1147
4.708577633,-29.3873,113.2244,10.22281,-0.4262726,0.1107255,1.277092,23.66496,-20.71757,-33.11222,986.1147
4.713494778,-32.23107,126.9115,13.39254,-0.3717724,0.153257,1.375601,23.66496,-20.71757,-33.11222,986.1147
4.718411922,-33.34384,141.6059,18.39095,-0.3002678,0.02356087,1.407271,23.66496,-20.71757,-33.11222,986.1147
4.723330021,-32.10743,157.8409,28.93639,-0.2538164,-0.1022893,1.430045,23.66496,-20.71757,-33.11222,986.1147
4.728247166,-28.52181,176.3866,41.31052,-0.2072071,-0.1720275,1.503655,23.66496,-20.71757,-33.11222,986.1147
4.733165264,-19.68143,201.0946,57.76872,-0.09697293,-0.1019773,1.565688,23.66496,-20.71757,-33.11222,986.1147
4.738082409,-1.629725,234.0977,70.02094,0.09716709,-0.00566607,1.671573,23.66496,-20.71757,-33.11222,986.113
4.743000507,30.26986,282.5656,74.59266,0.3099906,0.08295112,1.884361,25.55628,-20.49379,-31.11952,986.113
4.750376701,64.33317,349.1644,78.31099,0.194766,-0.02324604,1.48522,25.55628,-20.49379,-31.11952,986.113
4.755294323,89.37063,377.4275,78.00621,0.06281245,-0.08254097,1.307667,25.55628,-20.49379,-31.11952,986.113
4.760211945,122.3212,397.2767,78.73769,-0.01575394,-0.1366427,1.242486,25.55628,-20.49379,-31.11952,986.113
4.765129566,151.377,417.3038,59.90219,-0.06531926,0.01122355,1.214618,25.55628,-20.49379,-31.11952,986.113
4.770047188,171.6542,431.6427,45.82129,-0.2395357,0.3709965,1.375185,25.55628,-20.49379,-31.11952,986.113
4.774964809,159.7846,434.546,12.60011,-0.5586528,0.6640235,1.177449,25.55628,-20.49379,-31.11952,986.113
4.779882431,144.8858,402.9649,-25.07088,-0.6437605,0.6005512,1.036763,25.55628,-20.49379,-31.11952,986.1139
4.784800053,120.3429,359.1779,-46.1008,-0.6197193,0.552949,1.167591,25.55628,-20.49379,-31.11952,986.1139
4.789717674,57.47105,379.2643,-30.13025,-0.6404247,0.8053244,1.457948,29.64987,-21.47191,-22.95891,986.1139
4.794634819,-7.997276,390.048,-30.92269,-0.8464049,0.5841985,1.214151,29.64987,-21.47191,-22.95891,986.1139
4.799552917,-9.419156,378.8495,-37.44501,-1.438136,0.4055932,0.860783,29.64987,-21.47191,-22.95891,986.1139
4.804470062,2.8832,341.8172,-42.99203,-2.092583,0.5550516,0.7990869,29.64987,-21.47191,-22.95891,986.1139
4.809388161,-18.32137,313.2579,-36.95736,-2.785119,0.9359826,0.8859301,29.64987,-21.47191,-22.95891,986.1139
4.814305305,5.541499,283.3358,-39.02987,-2.794874,1.547247,1.263933,29.64987,-21.47191,-22.95891,986.1139
4.819223404,-5.153515,282.0916,-71.33671,-2.512348,1.676853,1.223043,29.64987,-21.47191,-22.95891,986.1122
4.824140549,-21.04148,271.2485,-96.57261,-1.949653,1.132829,1.266529,29.64987,-21.47191,-22.95891,986.1122
4.831517220,-31.05647,251.1029,-107.0571,-1.2272,0.4979831,1.23539,29.64987,-21.47191,-22.95891,986.1122
4.836434364,-35.75486,237.4751,-105.777,-1.044795,0.02284689,1.09242,29.64987,-21.47191,-22.95891,986.1122
4.841352463,-29.44913,222.1289,-108.2153,-1.311382,0.07445456,0.9190426,35.23182,-24.04781,-11.26464,986.1122
4.846269608,-31.86014,197.8357,-127.4774,-1.150447,-0.05533389,0.7902347,35.23182,-24.04781,-11.26464,986.1122
4.851187706,-4.226202,168.8024,-128.3308,-0.929523,-0.1413067,0.7720701,35.23182,-24.04781,-11.26464,986.1122
4.856104851,16.42198,126.9707,-130.5862,-0.7377522,0.1394234,0.7960052,35.23182,-24.04781,-11.26464,986.1122
4.861022949,16.97836,95.21187,-151.4333,-0.4488007,0.4566336,1.131055,35.23182,-24.04781,-11.26464,986.1148
4.865940094,-7.749993,77.08086,-166.4895,0.05147004,0.3134279,1.591869,35.23182,-24.04781,-11.26464,986.1148
4.870857239,-29.44913,102.0258,-123.3934,-0.7537854,0.04642961,1.7147,35.23182,-24.04781,-11.26464,986.1148
4.875775337,-26.04898,80.99147,-100.5957,-1.433137,0.1798567,0.9365308,35.23182,-24.04781,-11.26464,986.1148
4.880692482,12.83636,33.4124,-111.6288,-0.3471584,-0.1246532,1.01836,35.23182,-24.04781,-11.26464,986.1148
4.885610580,21.18218,17.76997,-89.74551,0.07068654,0.6347631,1.397604,35.23182,-24.04781,-11.26464,986.1148
4.892986298,-38.96954,12.08181,-80.60206,-0.2739765,0.6274719,1.206957,38.9077,-22.51043,-5.073082,986.1148
4.897904396,-41.07145,-8.774768,-82.85744,-0.06197127,0.1004928,1.007702,38.9077,-22.51043,-5.073082,986.1175
4.902821541,-29.44913,-22.28414,-80.66302,0.007608955,-0.1127642,0.8390954,38.9077,-22.51043,-5.073082,986.1175
4.907739639,-15.1685,-38.93386,-79.9925,-0.03367688,-0.09639139,0.7268295,38.9077,-22.51043,-5.073082,986.1175
4.912656784,-3.917098,-54.39854,-81.02876,0.1069725,-0.1371481,0.730195,38.9077,-22.51043,-5.073082,986.1175
4.917574882,8.261619,-64.76757,-74.87217,0.2044307,0.01919142,0.7883021,38.9077,-22.51043,-5.073082,986.1175
4.922492027,10.11625,-71.93702,-70.54427,0.2736847,0.1098719,0.8231719,38.9077,-22.51043,-5.073082,986.1175
4.927410126,5.788782,-75.84763,-61.46179,0.3445767,0.1467162,0.8427073,38.9077,-22.51043,-5.073082,986.1175
4.932327270,1.832245,-79.58048,-57.43867,0.3407336,-0.01257085,0.7521776,38.9077,-22.51043,-5.073082,986.1175
4.937246799,2.264992,-82.18755,-46.71037,0.3275557,-0.04745792,0.733688,38.9077,-22.51043,-5.073082,986.114
4.942162514,6.777916,-87.1647,-39.57848,0.2479934,-0.07501442,0.6829618,40.76063,-20.38751,-5.003494,986.114
4.947080135,12.21815,-95.28217,-32.26373,0.2144227,-0.08047511,0.6981138,40.76063,-20.38751,-5.003494,986.114
4.951997757,16.66926,-104.2884,-24.46132,0.175581,-0.06982037,0.6837226,40.76063,-20.38751,-5.003494,986.114
4.956915379,19.51302,-114.3612,-16.71987,0.1283788,-0.03841794,0.6773483,40.76063,-20.38751,-5.003494,986.114
4.964292049,21.05854,-129.6481,-6.601126,0.1128043,0.002281444,0.7103408,40.76063,-20.38751,-5.003494,986.114
4.969209194,19.94577,-138.7729,-0.627409,0.1173139,0.01223962,0.7276167,40.76063,-20.38751,-5.003494,986.114
4.974127293,18.52389,-146.7126,4.188138,0.1256552,-0.005096152,0.7197095,40.76063,-20.38751,-5.003494,986.114
4.979044437,17.28747,-154.1783,8.272209,0.1159658,-0.02320098,0.7182374,40.76063,-20.38751,-5.003494,986.1164
4.983962536,16.29833,-161.407,11.62481,0.1131737,-0.0519489,0.7153965,40.76063,-20.38751,-5.003494,986.1164
4.988879681,16.66926,-168.4579,14.12401,0.09854452,-0.07048564,0.7086102,42.14202,-18.16523,-7.808026,986.1164
4.993803024,17.41111,-175.0349,16.50131,0.09039666,-0.06846843,0.7271921,42.14202,-18.16523,-7.808026,986.1164
4.998714924,17.72021,-181.2563,18.20809,0.05912901,-0.04518561,0.745189,42.14202,-18.16523,-7.808026,986.1164
5.003633022,19.08027,-186.6482,19.73199,0.04574532,-0.03047399,0.7865553,42.14202,-18.16523,-7.808026,986.1164
5.008550167,19.94577,-191.8624,21.68259,-0.007937907,-0.01430022,0.8088781,42.14202,-18.16523,-7.808026,986.1164
5.013467789,18.77117,-198.617,23.93798,-0.06465191,-0.01098678,0.813334,42.14202,-18.16523,-7.808026,986.1164
5.018385410,16.60744,-205.7865,26.98579,-0.1120812,-0.01046842,0.8151965,42.14202,-18.16523,-7.808026,986.113
5.025762081,13.51639,-217.4591,31.31369,-0.1832492,-0.007704936,0.8420881,42.14202,-18.16523,-7.808026,986.113
5.030679226,10.98174,-225.3988,33.99576,-0.2300927,0.002275985,0.8597863,42.14202,-18.16523,-7.808026,986.113
5.035597324,6.901558,-233.5163,36.67784,-0.2557783,-0.01721273,0.8724816,42.14202,-18.16523,-7.808026,986.113
5.040514469,4.305081,-240.7449,39.23801,-0.2766866,-0.07067434,0.8524888,40.94385,-18.30764,-14.27037,986.113
5.045432568,4.676006,-247.6774,41.12765,-0.3109508,-0.0897304,0.8380786,40.94385,-18.30764,-14.27037,986.113
5.050349712,5.232394,-254.9653,42.46869,-0.3045382,-0.1153337,0.8279799,40.94385,-18.30764,-14.27037,986.113
5.055266857,5.974245,-261.009,44.72407,-0.3265842,-0.1019577,0.8324739,40.94385,-18.30764,-14.27037,986.113
5.060184956,7.334304,-265.5121,45.02885,-0.3625675,-0.1224507,0.8418229,40.94385,-18.30764,-14.27037,986.1139
5.065102100,11.22902,-269.4228,44.84599,-0.3727638,-0.1357039,0.8414816,40.94385,-18.30764,-14.27037,986.1139
5.070020199,15.06192,-273.2148,44.9679,-0.4170069,-0.1124976,0.8833737,40.94385,-18.30764,-14.27037,986.1139
5.074937344,16.73108,-276.4737,43.13921,-0.4538952,-0.1104989,0.8633481,40.94385,-18.30764,-14.27037,986.1139
5.079857349,19.69848,-280.3843,41.31052,-0.4771514,-0.1120943,0.8853369,40.94385,-18.30764,-14.27037,986.1139
5.084772587,21.49129,-283.2876,39.60374,-0.5045736,-0.1219181,0.8760218,40.94385,-18.30764,-14.27037,986.1139
5.089690685,25.32418,-285.9539,37.04358,-0.5277554,-0.1251027,0.9047564,37.61423,-18.75622,-22.0255,986.1139
5.094607830,30.3935,-286.428,30.27743,-0.5083656,-0.191092,0.9476363,37.61423,-18.75622,-22.0255,986.1139
5.101984501,35.03006,-287.9685,35.64158,-0.5656852,-0.1277695,0.9768414,37.61423,-18.75622,-22.0255,986.1149
5.106901646,37.87382,-287.2575,36.43402,-0.6123932,-0.1035832,1.017329,37.61423,-18.75622,-22.0255,986.1149
5.111819744,42.8195,-285.7762,36.92167,-0.6973161,0.01636518,1.160734,37.61423,-18.75622,-22.0255,986.1149
5.116736889,39.17206,-286.3687,46.24798,-0.6896826,-0.123489,1.105692,37.61423,-18.75622,-22.0255,986.1149
5.121654987,44.24137,-284.7689,52.89222,-0.7424656,-0.030469,1.217867,37.61423,-18.75622,-22.0255,986.1149
5.126572132,41.08851,-284.4727,57.6468,-0.7993808,-0.02674746,1.252441,37.61423,-18.75622,-22.0255,986.1149
5.131489754,40.22302,-286.1317,62.46236,-0.8781237,-0.01440853,1.311262,37.61423,-18.75622,-22.0255,986.1149
5.136407375,38.9866,-289.6868,68.07034,-0.9033614,-0.001968145,1.390039,37.61423,-18.75622,-22.0255,986.1149
5.141324997,28.84797,-299.2263,83.85802,-0.9559488,0.0120381,1.372469,29.94582,-20.24704,-28.60877,986.1133
5.146242619,27.85884,-293.7159,80.68829,-1.111119,0.1107598,1.522083,29.94582,-20.24704,-28.60877,986.1133
5.151160240,23.9023,-301.4779,85.99149,-1.046718,0.04365194,1.464052,29.94582,-20.24704,-28.60877,986.1133
5.158536434,9.436215,-299.4041,103.4859,-1.119629,0.2041213,1.559134,29.94582,-20.24704,-28.60877,986.1133
5.163454056,-1.938829,-299.9373,121.3461,-1.210577,0.1608589,1.586168,29.94582,-20.24704,-28.60877,986.1133
5.168371677,-11.45925,-297.3303,130.3677,-1.332184,0.077422,1.452426,29.94582,-20.24704,-28.60877,986.1133
5.173289299,-14.61211,-296.7378,140.7302,-1.466165,0.1446428,1.497436,29.94582,-20.24704,-28.60877,986.1133
5.178206921,-22.21608,-294.5454,148.045,-1.607256,0.2783421,1.505309,29.94582,-20.24704,-28.60877,986.1081
5.183124542,-31.79832,-289.5683,154.5064,-1.759779,0.350575,1.456439,29.94582,-20.24704,-28.60877,986.1081
5.188042164,-40.0205,-283.8209,160.1143,-1.934859,0.4304121,1.35556,23.3521,-19.33497,-32.30364,986.1081
5.192959786,-47.31536,-278.903,163.406,-2.082554,0.5158041,1.257548,23.3521,-19.33497,-32.30364,986.1081
5.197877407,-52.81742,-271.2003,160.1753,-2.213401,0.5608819,1.106638,23.3521,-19.33497,-32.30364,986.1081
5.202795029,-53.9302,-261.483,152.0681,-2.282051,0.576438,0.8950358,23.3521,-19.33497,-32.30364,986.1081
5.207712174,-50.53005,-246.7294,140.3645,-2.282527,0.5218362,0.6597468,23.3521,-19.33497,-32.30364,986.1081
5.212630272,-45.08981,-228.3614,129.2704,-2.262228,0.375355,0.3922095,23.3521,-19.33497,-32.30364,986.1081
5.220006943,-26.17262,-194.2324,112.6294,-2.186472,0.1185805,0.07649697,23.3521,-19.33497,-32.30364,986.1073
5.224924088,-2.927963,-168.1024,103.1202,-2.133131,-0.09224036,-0.1516185,23.3521,-19.33497,-32.30364,986.1073
5.229841232,20.56398,-144.7573,92.51381,-2.175758,-0.3470616,-0.315781,23.3521,-19.33497,-32.30364,986.1073
5.234759331,42.20129,-124.3155,84.04089,-2.335597,-0.446611,-0.5186724,23.3521,-19.33497,-32.30364,986.1073
5.239676476,64.33317,-108.4953,73.61736,-2.415374,-0.4617009,-0.5840487,14.2106,-20.5145,-36.83575,986.1073
5.244594574,75.02818,-90.7198,63.80339,-2.473939,-0.3916064,-0.5784073,14.2106,-20.5145,-36.83575,986.1073
5.249511719,70.20615,-63.22703,54.90377,-2.457805,-0.1697149,-0.5952167,14.2106,-20.5145,-36.83575,986.1073
5.254429817,67.23875,-41.18542,46.85754,-2.564598,0.06634797,-0.6197878,14.2106,-20.5145,-36.83575,986.1073
5.259346962,53.51451,-18.84755,29.85074,-2.60497,0.1899387,-0.5713103,14.2106,-20.5145,-36.83575,986.1023
5.264265060,36.76105,2.72005,13.81923,-2.617439,0.2365839,-0.5677702,14.2106,-20.5145,-36.83575,986.1023
5.269182205,26.18968,18.54024,0.8964983,-2.608494,0.3487174,-0.5351163,14.2106,-20.5145,-36.83575,986.1023
5.274100304,16.54562,33.23465,-10.31946,-2.4048,0.5371007,-0.5487128,14.2106,-20.5145,-36.83575,986.1023
5.279017448,4.676006,53.55796,-40.85856,-2.333937,0.5061441,-0.2691623,14.2106,-20.5145,-36.83575,986.1023
5.286394119,-10.16101,80.33971,-53.53747,-1.993672,0.7711804,-0.3260912,7.293311,-22.24869,-38.12,986.1023
5.291311264,-17.02313,109.3138,-69.3861,-1.670029,0.4798619,-0.1652373,7.293311,-22.24869,-38.12,986.1023
5.296229363,-8.244559,132.8959,-67.25263,-1.568431,0.5846884,-0.1151278,7.293311,-22.24869,-38.12,986.1023
5.301146507,-28.70727,140.1246,-72.312,-0.3474495,0.3524514,0.5194786,7.293311,-22.24869,-38.12,986.1016
5.306064606,-33.15838,173.7795,-64.20482,0.6795871,-0.4170966,2.117773,7.293311,-22.24869,-38.12,986.1016
5.310981751,96.48003,229.0021,-84.62518,2.774255,-1.226644,3.832747,7.293311,-22.24869,-38.12,986.1016
5.315899372,305.0019,255.1913,-111.4459,4.166947,0.3069234,4.590049,7.293311,-22.24869,-38.12,986.1016
5.320816994,215.9798,226.3358,-120.2846,1.582386,2.409319,2.572419,7.293311,-22.24869,-38.12,986.1016
5.325734615,-43.04972,342.8245,-55.60999,-1.216978,1.367775,2.322631,7.293311,-22.24869,-38.12,986.1016
5.330652237,-219.3011,449.7144,-20.13342,-3.023107,-0.5170612,-0.3395251,7.293311,-22.24869,-38.12,986.1016
5.335569858,-93.24828,342.232,-72.49487,-4.041012,-1.864829,-0.9696493,8.736653,-22.28848,-37.28687,986.1016
5.340487480,79.72656,221.8326,-107.8495,-2.256212,-2.712656,-0.1681066,8.736653,-22.28848,-37.28687,986.0982
5.345405102,217.649,175.4978,-25.07088,-2.289987,0.5050204,1.49973,8.736653,-22.28848,-37.28687,986.0982
5.350327015,111.1934,129.5778,1.932755,-3.332622,2.32865,2.330988,8.736653,-22.28848,-37.28687,986.0982
5.355240345,27.79702,135.0882,-49.20958,-3.812818,2.767043,0.8350875,8.736653,-22.28848,-37.28687,986.0982
5.360157966,19.94577,58.94986,-71.94627,-1.852619,1.276897,1.120808,8.736653,-22.28848,-37.28687,986.0982
5.367534160,18.89481,69.37815,-43.11395,0.7965457,0.1838024,0.6144133,8.736653,-22.28848,-37.28687,986.0982
5.372451782,12.89818,97.58193,-5.747737,0.8255379,0.3135916,0.9111142,8.736653,-22.28848,-37.28687,986.0982
5.377369404,-35.32211,137.7545,2.298493,-0.3176584,0.5227232,1.076261,8.736653,-22.28848,-37.28687,986.0982
5.382287025,-47.19172,134.3772,-5.138175,-1.079833,0.2645344,0.8023385,8.736653,-22.28848,-37.28687,986.0991
5.387204647,-29.44913,102.3221,-17.75613,-1.273638,0.1497624,0.7706317,17.50201,-22.11697,-33.61743,986.0991
5.392122269,-27.71814,83.59854,-29.33782,-1.188462,-0.09928371,0.8789615,17.50201,-22.11697,-33.61743,986.0991
5.397039890,-25.2453,68.66713,-30.92269,-1.091995,-0.3884387,0.7130421,17.50201,-22.11697,-33.61743,986.0991
5.401957035,-4.164381,55.69102,-32.44659,-0.7884741,-0.4282364,0.7165582,17.50201,-22.11697,-33.61743,986.0991
5.406875133,10.30171,37.20451,-21.4135,-0.3989645,-0.2795269,0.8259181,17.50201,-22.11697,-33.61743,986.0991
5.411792278,12.27998,33.70866,-9.953722,-0.5295019,0.02581564,0.8668826,17.50201,-22.11697,-33.61743,986.0991
5.416710377,1.584962,31.22009,-3.187573,-0.5569731,0.02000895,1.007241,17.50201,-22.11697,-33.61743,986.0991
5.421627521,-0.3314858,33.35315,0.408848,-0.5824654,-0.1628484,0.8889437,17.50201,-22.11697,-33.61743,986.1
5.426545620,8.447081,25.70969,3.883357,-0.5488923,-0.2716904,0.753113,17.50201,-22.11697,-33.61743,986.1
5.431462765,19.1421,21.32507,4.736744,-0.5271017,-0.1770071,0.8899775,17.50201,-22.11697,-33.61743,986.1
5.436380863,21.73857,19.42901,3.151881,-0.6305603,-0.05598221,0.7854616,20.81936,-22.18536,-32.39718,986.1
5.441298008,22.60406,10.71902,4.005269,-0.4353194,-0.07846953,0.932683,20.81936,-22.18536,-32.39718,986.1
5.446216106,32.43359,11.96331,7.906472,-0.4687783,0.06956092,0.799812,20.81936,-22.18536,-32.39718,986.1
5.451133251,31.38263,11.31154,11.92959,-0.4735858,0.1894416,0.9328472,20.81936,-22.18536,-32.39718,986.1
5.456050396,26.99335,13.08909,16.01366,-0.4509593,0.1354353,1.014442,20.81936,-22.18536,-32.39718,986.1
5.463427067,28.78615,7.874944,13.94114,-0.5185034,0.200397,0.7956753,20.81936,-22.18536,-32.39718,986.0967
5.468345165,32.06266,7.519433,14.85549,-0.4514554,0.2771174,0.897605,20.81936,-22.18536,-32.39718,986.0967
5.473262310,28.53887,7.697189,12.96584,-0.4350099,0.3528154,0.8741638,20.81936,-22.18536,-32.39718,986.0967
5.478180408,24.7678,8.822969,9.430379,-0.4165033,0.3579755,0.9198176,20.81936,-22.18536,-32.39718,986.0967
5.483097553,19.38938,10.89678,7.662647,-0.4311057,0.2757617,0.9274977,20.81936,-22.18536,-32.39718,986.0967
5.488014698,13.8255,15.22215,6.870215,-0.4508047,0.1722228,0.9515296,22.25799,-22.21239,-31.94714,986.0967
5.492932796,16.7929,11.66705,5.651089,-0.5572771,0.193541,0.7268277,22.25799,-22.21239,-31.94714,986.0967
5.497849941,15.12374,8.645215,3.029969,-0.4581056,0.1677062,0.850939,22.25799,-22.21239,-31.94714,986.0967
5.502768040,12.83636,8.941473,4.736744,-0.5099353,0.1734648,0.8054232,22.25799,-22.21239,-31.94714,986.0977
5.507685184,12.58908,8.230453,5.590133,-0.500571,0.149323,0.848756,22.25799,-22.21239,-31.94714,986.0977
5.512603283,13.20729,7.697189,6.382565,-0.4784676,0.1474093,0.8572528,22.25799,-22.21239,-31.94714,986.0977
5.517520428,14.44371,8.11195,6.382565,-0.4726334,0.1803165,0.8737972,22.25799,-22.21239,-31.94714,986.0977
5.524897098,13.57821,8.704467,6.016827,-0.4883941,0.2305127,0.8425195,22.25799,-22.21239,-31.94714,986.0977
5.529814720,11.84723,8.882221,5.285351,-0.4831896,0.2434338,0.8322093,22.25799,-22.21239,-31.94714,986.0977
5.534732342,10.79628,8.289705,5.529176,-0.4822407,0.2569996,0.8374919,22.26593,-23.25122,-31.97898,986.0977
5.539649963,8.199798,8.11195,4.919613,-0.469802,0.2292186,0.8423254,22.26593,-23.25122,-31.97898,986.0977
5.544567585,6.716095,8.11195,4.249094,-0.4799202,0.2095473,0.8461476,22.26593,-23.25122,-31.97898,986.1
