Time (s),Gyroscope X (deg/s),Gyroscope Y (deg/s),Gyroscope Z (deg/s),Accelerometer X (g),Accelerometer Y (g),Accelerometer Z (g),Magnetometer X (uT),Magnetometer Y (uT),Magnetometer Z (uT),Barometer (hPa)
0.000000000,-0.2298105,0.05377331,-0.1542366,-0.4096433,-0.08066067,0.9056976,11.04908,17.42294,-30.95054,990.0416
0.004917145,0.1410844,-0.1239409,0.02865255,-0.4120354,-0.08849962,0.906437,11.04908,17.42294,-30.95054,990.0416
0.009834766,-0.1679533,0.1130691,-0.09323974,-0.4077471,-0.0824566,0.8983414,11.04908,17.42294,-30.95054,990.0383
0.014751911,-0.04424487,-0.1239154,-0.03230147,-0.4131427,-0.08633207,0.8943772,11.04908,17.42294,-30.95054,990.0383
0.019669056,0.07938589,-0.06458588,-0.03224287,-0.4091755,-0.08688384,0.8996679,11.04908,17.42294,-30.95054,990.0383
0.024586678,0.01757337,0.05393933,-0.03224174,-0.4127157,-0.0760828,0.8942168,11.04908,17.42294,-30.95054,990.0383
0.029503822,-0.1060406,0.2907631,-0.09312034,-0.4141202,-0.08393103,0.8959188,11.04908,17.42294,-30.95054,990.0383
0.034420967,0.01759006,-0.00549178,0.02877417,-0.410174,-0.08492488,0.8987678,11.04908,17.42294,-30.95054,990.0383
0.041797161,-0.04415036,-0.005375037,0.02882361,-0.4101672,-0.08445559,0.8997538,11.04908,17.42294,-30.95054,990.0383
0.046713829,-0.1059629,-0.06460464,0.1506798,-0.4125143,-0.08948795,0.9068947,11.42855,16.68648,-30.9722,990.0383
0.051630974,-0.167659,0.1723495,-0.03226459,-0.4087489,-0.0824201,0.8959231,11.42855,16.68648,-30.9722,990.0392
0.056548119,-0.04398958,-0.183157,-0.09316231,-0.4082449,-0.08340865,0.8968584,11.42855,16.68648,-30.9722,990.0392
0.061465263,-0.04400073,-0.06461301,0.02871307,-0.4126005,-0.08160764,0.9027783,11.42855,16.68648,-30.9722,990.0392
0.066382885,-0.04397313,-0.1238241,0.08963218,-0.4072531,-0.08583689,0.8967724,11.42855,16.68648,-30.9722,990.0392
0.071300030,0.0178171,0.1131299,-0.09323555,-0.4135934,-0.08399916,0.8997966,11.42855,16.68648,-30.9722,990.0392
0.076217175,0.01782529,0.0538444,0.08963446,-0.4096775,-0.08541694,0.8992334,11.42855,16.68648,-30.9722,990.0392
0.081134796,-0.1675903,-0.06463685,-0.1541321,-0.4102762,-0.08087136,0.8906444,11.42855,16.68648,-30.9722,990.0392
0.086051941,-0.0439015,-0.06448463,-0.03223758,-0.4160615,-0.08494171,0.8968734,11.42855,16.68648,-30.9722,990.0392
0.090969086,-0.04385451,-0.06444416,0.02873894,-0.4092148,-0.08487975,0.8968192,11.42855,16.68648,-30.9722,990.0436
0.095886707,0.07977601,-0.005245071,-0.03217797,-0.4096822,-0.08540787,0.8987482,11.43327,16.67372,-30.58912,990.0436
0.103262424,-0.1057618,-0.06445456,0.1506255,-0.4082147,-0.07960907,0.9023208,11.43327,16.67372,-30.58912,990.0436
0.108179569,0.0178882,-0.005199753,0.02873313,-0.4146024,-0.08684183,0.8948584,11.43327,16.67372,-30.58912,990.0436
0.113097191,-0.04388564,-0.005196589,-0.03222209,-0.4096889,-0.08587715,0.8977622,11.43327,16.67372,-30.58912,990.0436
0.118014336,0.07978373,0.05403969,-0.03224011,-0.4082815,-0.08189198,0.8939941,11.43327,16.67372,-30.58912,990.0436
0.122931480,0.01787393,-0.06447897,0.02873641,-0.4135289,-0.08798013,0.9040382,11.43327,16.67372,-30.58912,990.0436
0.127848625,-0.04391937,0.05399041,-0.03221881,-0.4112028,-0.08338985,0.8944556,11.43327,16.67372,-30.58912,990.0436
0.132766247,0.07973056,-0.00522066,0.02871941,-0.4052437,-0.08447484,0.9031116,11.43327,16.67372,-30.58912,990.0419
0.137683392,-0.1057045,-0.06446902,0.08965765,-0.4102113,-0.08244245,0.89642,11.43327,16.67372,-30.58912,990.0419
0.142600536,0.01794539,0.05400036,-0.03227296,-0.4184563,-0.08313207,0.903263,11.43327,16.67372,-30.58912,990.0419
0.147518158,-0.1057077,-0.005266544,0.02866532,-0.4101732,-0.08589065,0.8982512,11.42575,17.05313,-30.96097,990.0419
0.152435303,0.0797243,-0.06453355,0.08954615,-0.4125956,-0.08499235,0.9012132,11.42575,17.05313,-30.96097,990.0419
0.157351971,0.01789221,-0.005297171,0.08954734,-0.4077393,-0.08970438,0.8947102,11.42575,17.05313,-30.96097,990.0419
0.162269115,-0.1057608,0.05390192,0.02859224,-0.4092411,-0.08434698,0.8944088,11.42575,17.05313,-30.96097,990.0419
0.167186260,0.0178892,-0.06457933,0.02855512,-0.4121332,-0.08107952,0.9008492,11.42575,17.05313,-30.96097,990.0419
0.174562454,0.1414559,-0.005248236,-0.09332694,-0.4062252,-0.0830305,0.9036514,11.42575,17.05313,-30.96097,990.043
0.179479599,0.07958499,0.1723983,0.02854853,-0.4115966,-0.08454143,0.903647,11.42575,17.05313,-30.96097,990.043
0.184396744,0.0177335,0.17229,-0.03238742,-0.4091655,-0.08449209,0.902172,11.42575,17.05313,-30.96097,990.043
0.189314365,0.0176641,-0.005461493,0.02855091,-0.4116777,-0.08342148,0.895915,11.42575,17.05313,-30.96097,990.043
0.194231510,0.1413142,0.1130266,-0.2151582,-0.4101703,-0.08975372,0.8961852,11.42575,17.05313,-30.96097,990.043
0.199148655,0.07940458,-0.06468759,0.02866813,-0.4101956,-0.08440118,0.8968425,10.67803,17.05946,-30.96258,990.043
0.204066277,0.1411562,-0.1238986,-0.03230618,-0.4096638,-0.08785403,0.8991551,10.67803,17.05946,-30.96258,990.043
0.208983421,0.01754224,-0.1237649,-0.0323242,-0.4151024,-0.08489658,0.8949248,10.67803,17.05946,-30.96258,990.0439
0.213900566,-0.1678149,-0.06450994,-0.09324105,-0.4101718,-0.08782218,0.8972182,10.67803,17.05946,-30.96258,990.0439
0.218818188,0.07941879,-0.06443218,-0.03230278,-0.4097561,-0.08140877,0.8935362,10.67803,17.05946,-30.96258,990.0439
0.223735333,0.07940776,-0.06439172,-0.0323399,-0.4106306,-0.08402702,0.9026846,10.67803,17.05946,-30.96258,990.0439
0.228652477,-0.04422565,-0.3012647,-0.0323387,-0.4092514,-0.08336308,0.8939549,10.67803,17.05946,-30.96258,990.0439
0.233569622,0.07944396,0.05419237,-0.03229926,-0.4121793,-0.08870588,0.89138,10.67803,17.05946,-30.96258,990.0439
0.238487244,-0.1678312,-0.06432629,-0.03229813,-0.4091964,-0.08732591,0.8972262,10.67803,17.05946,-30.96258,990.0439
0.243404388,0.1412815,0.05419881,0.02860189,-0.4112392,-0.08524883,0.889541,10.67803,17.05946,-30.96258,990.0439
0.250780582,0.07938583,-0.123384,0.1504492,-0.4116386,-0.08204994,0.9008141,11.05941,16.67689,-30.58992,990.0448
0.255697727,0.1411375,-0.06409213,-0.09335557,-0.4120342,-0.0870555,0.9074543,11.05941,16.67689,-30.58992,990.0448
0.260614872,0.07928614,-0.1232662,0.02857736,-0.4087504,-0.08048857,0.8969561,11.05941,16.67689,-30.58992,990.0448
0.265532017,0.07925577,-0.123226,0.02854024,-0.4106115,-0.08743895,0.902575,11.05941,16.67689,-30.58992,990.0448
0.270448685,0.1410075,0.05451321,0.2113338,-0.4112048,-0.0838682,0.8939548,11.05941,16.67689,-30.58992,990.0448
0.275366306,0.1408994,0.05451615,-0.03249017,-0.4087307,-0.08149061,0.8983805,11.05941,16.67689,-30.58992,990.0448
0.280283451,0.01724681,-0.004713908,-0.1543823,-0.4097264,-0.08001907,0.8974648,11.05941,16.67689,-30.58992,990.0448
0.285200596,-0.04460433,-0.1231212,0.1503621,-0.4107158,-0.08386377,0.8939509,11.05941,16.67689,-30.58992,990.0448
0.290117741,0.07900721,-0.004615021,0.02846987,-0.4096939,-0.08249244,0.8993273,11.05941,16.67689,-30.58992,990.0475
0.295035362,0.07897697,-0.1230782,0.1503071,-0.4125923,-0.08306989,0.9027314,11.05189,17.0563,-30.96177,990.0475
0.299952507,0.01712589,-0.06380507,-0.09345931,-0.4087479,-0.08676151,0.8933563,11.05189,17.0563,-30.96177,990.0475
0.304871082,-0.04468634,-0.004531956,0.02839712,-0.4087223,-0.08632851,0.8962831,11.05189,17.0563,-30.96177,990.0475
0.309787273,-0.1064791,0.2916174,0.02836012,-0.4116395,-0.09024534,0.8956959,11.05189,17.0563,-30.96177,990.0475
0.317162991,-0.04463558,-0.1231025,0.2111257,-0.4072613,-0.08437463,0.8968194,11.05189,17.0563,-30.96177,990.0475
0.322080135,0.1407775,-0.06377354,-0.03267898,-0.4121355,-0.08734339,0.8967642,11.05189,17.0563,-30.96177,990.0475
0.326997757,0.01710549,-0.004463244,-0.03267762,-0.4087259,-0.08149968,0.8988657,11.05189,17.0563,-30.96177,990.0475
0.331914902,0.0788574,-0.06371206,-0.03267625,-0.4131292,-0.0853935,0.8963493,11.05189,17.0563,-30.96177,990.0486
0.336832047,0.07882727,-0.004420412,0.08921854,-0.412219,-0.0799505,0.8926321,11.05189,17.0563,-30.96177,990.0486
0.341749668,-0.1066073,-0.06366923,-0.03269264,-0.4076942,-0.08689778,0.9011118,11.05189,17.0563,-30.96177,990.0486
0.346666813,-0.0447582,-0.1228809,0.1501393,-0.4141376,-0.08582629,0.8929449,10.68084,16.69282,-30.97382,990.0486
0.351583958,0.07889225,0.05491396,0.08914614,-0.4125794,-0.08454122,0.9031696,10.68084,16.69282,-30.97382,990.0486
0.356501579,0.01704122,-0.1819969,0.08910929,-0.4116267,-0.07917984,0.9038191,10.68084,16.69282,-30.97382,990.0486
0.361418724,-0.04477094,-0.1226867,0.1499522,-0.41457,-0.08593955,0.8987713,10.68084,16.69282,-30.97382,990.0486
0.366340160,0.07882132,-0.2410571,0.1498962,-0.4102071,-0.08486139,0.8953713,10.68084,16.69282,-30.97382,990.0486
0.371253014,0.1405344,-0.06324373,-0.2157442,-0.4087054,-0.08684313,0.8977231,10.68084,16.69282,-30.97382,990.0492
0.376170635,-0.04491945,-0.1816887,-0.09373439,-0.4097513,-0.08141784,0.8940214,10.68084,16.69282,-30.97382,990.0492
0.381087780,0.01692968,-0.06310857,-0.1546318,-0.4057292,-0.08593245,0.9025832,10.68084,16.69282,-30.97382,990.0492
0.386004925,0.01689961,-0.1222647,-0.1545729,-0.4097474,-0.08046114,0.8950231,10.68084,16.69282,-30.97382,990.0492
0.390921593,-0.04495129,-0.181421,-0.154495,-0.4092245,-0.08148597,0.8978992,10.68084,16.69282,-30.97382,990.0492
0.398297787,0.01685374,-0.00358818,-0.1543877,-0.4135309,-0.08845848,0.9035373,11.42103,17.06588,-31.34406,990.0492
0.403214932,-0.0449777,-0.00358592,-0.03243555,-0.4096733,-0.08783589,0.8981847,11.42103,17.06588,-31.34406,990.0492
0.408132076,-0.04491061,-0.1220498,-0.03247261,-0.4111337,-0.08737989,0.8991824,11.42103,17.06588,-31.34406,990.0492
0.413049698,0.01689967,0.1149031,0.08938379,-0.4063068,-0.08432043,0.8943856,11.42103,17.06588,-31.34406,990.0502
0.417966843,-0.1066945,-0.0628309,-0.2153006,-0.4101705,-0.08637807,0.8982356,11.42103,17.06588,-31.34406,990.0502
0.422883988,-0.1684677,-0.1220059,-0.1542474,-0.4091526,-0.08596342,0.9026104,11.42103,17.06588,-31.34406,990.0502
0.427801132,0.07876631,-0.1811623,0.1504778,-0.4135453,-0.08505562,0.9041321,11.42103,17.06588,-31.34406,990.0502
0.432718754,-0.1066293,0.0557906,-0.09328872,-0.4077606,-0.08339515,0.8963693,11.42103,17.06588,-31.34406,990.0502
0.437635899,0.01702118,0.0558114,-0.09324928,-0.4121113,-0.08497886,0.9007241,11.42103,17.06588,-31.34406,990.0502
0.442553043,0.07888959,-0.003400916,-0.03229185,-0.4141744,-0.08093397,0.892131,11.42103,17.06588,-31.34406,990.0502
0.447470665,0.01711622,-0.06266906,0.02868473,-0.4160061,-0.08649466,0.9016785,11.42575,17.05313,-30.96097,990.0502
0.452387810,-0.04469601,0.05585502,0.0286284,-0.4086752,-0.08304356,0.9031856,11.42575,17.05313,-30.96097,990.0469
0.459763527,-0.04463445,-0.1810181,0.0287163,-0.4097018,-0.08440582,0.8973239,11.42575,17.05313,-30.96097,990.0469
0.464681149,-0.1682093,-0.0032983,-0.03220061,-0.409231,-0.08533089,0.8948627,11.42575,17.05313,-30.96097,990.0469
0.469598293,0.0172425,-0.003203143,-0.154093,-0.4111777,-0.08536673,0.8958486,11.42575,17.05313,-30.96097,990.0469
0.474515438,-0.1681533,-0.003163927,-0.1540345,-0.4121451,-0.08394961,0.8978441,11.42575,17.05313,-30.96097,990.0469
0.479433060,-0.1062268,-0.1215908,-0.09303883,-0.4091717,-0.0825515,0.9027199,11.42575,17.05313,-30.96097,990.0469
0.484350205,-0.1679422,0.1153618,-0.03200497,-0.4150894,-0.08636791,0.8953631,11.42575,17.05313,-30.96097,990.0469
0.489267349,-0.04427258,-0.1808013,0.02899059,-0.4091912,-0.08492509,0.8992452,11.42575,17.05313,-30.96097,990.0469
0.494184494,-0.1060462,-0.1215106,-0.1538582,-0.4120822,-0.08599905,0.9031188,11.05941,16.67689,-30.58992,990.0478
0.499102116,-0.1060185,-0.1806859,-0.09280526,-0.4097319,-0.07904424,0.8974961,11.05941,16.67689,-30.58992,990.0478
0.504019261,-0.04409217,-0.1213395,-0.09268951,-0.4067248,-0.08783655,0.8996172,11.05941,16.67689,-30.58992,990.0478
0.508935928,-0.2294495,-0.06204873,-0.09268873,-0.4117392,-0.08330359,0.8896074,11.05941,16.67689,-30.58992,990.0478
0.516311646,-0.1057274,0.05653163,-0.03160682,-0.4077165,-0.0854083,0.8997031,11.05941,16.67689,-30.58992,990.0478
0.521229267,0.07970461,-0.06195131,-0.0925241,-0.4126613,-0.08245551,0.8959541,11.05941,16.67689,-30.58992,990.0478
0.526146412,-0.1675319,-0.1803784,-0.2143403,-0.4087551,-0.0804795,0.896471,11.05941,16.67689,-30.58992,990.0478
0.531063557,-0.1674461,-0.002621914,-0.1532493,-0.4116804,-0.08293407,0.8959307,11.05941,16.67689,-30.58992,990.0471
0.535981178,-0.04375735,-0.3579254,-0.1531722,-0.4091695,-0.08544879,0.9011704,11.05941,16.67689,-30.58992,990.0471
0.540898323,0.0798342,-0.06159125,-0.03122079,-0.410214,-0.08195503,0.8964356,11.05941,16.67689,-30.58992,990.0471
0.545815468,-0.1673636,-0.002338024,-0.09208087,-0.4135832,-0.08498307,0.9002504,11.43136,16.31984,-30.98344,990.0471
0.550733090,-0.2290599,-0.002299374,-0.09200387,-0.4101722,-0.08107089,0.901319,11.43136,16.31984,-30.98344,990.0471
0.555650234,-0.1053131,-0.002316552,-0.03100895,-0.4111406,-0.08447352,0.9002467,11.43136,16.31984,-30.98344,990.0471
0.560567379,0.01831717,-0.2391728,-0.1528255,-0.4096402,-0.08789938,0.9015812,11.43136,16.31984,-30.98344,990.0471
0.565484524,0.01832507,-0.1797523,-0.2746229,-0.407728,-0.08586852,0.8982319,11.43136,16.31984,-30.98344,990.0471
0.570402146,0.08009561,-0.001977624,-0.03072097,-0.4077131,-0.08686149,0.899171,11.43136,16.31984,-30.98344,990.042
0.575319290,-0.1052814,-0.001939199,0.03017807,-0.4116625,-0.07862894,0.9004384,11.43136,16.31984,-30.98344,990.042
0.582695007,-0.2287658,-0.06109602,0.09116331,-0.408713,-0.082971,0.8993039,11.43136,16.31984,-30.98344,990.042
0.587612629,-0.04321772,-0.06113208,-0.09157137,-0.4111553,-0.08685619,0.8972573,11.43136,16.31984,-30.98344,990.042
0.592529774,0.08033475,-0.1202896,-0.09153298,-0.4106028,-0.08649132,0.9040619,11.05941,16.67689,-30.58992,990.042
0.597446919,-0.0432604,-0.1202699,-0.1523935,-0.4077631,-0.08628339,0.8943346,11.05941,16.67689,-30.58992,990.042
0.602364540,-0.04323322,-0.00174685,-0.0304426,-0.4082329,-0.08053856,0.8998635,11.05941,16.67689,-30.58992,990.042
0.607281685,-0.1050075,-0.001727073,-0.03038516,-0.4072439,-0.08247939,0.8997932,11.05941,16.67689,-30.58992,990.042
0.612198830,-0.104961,-0.06095894,-0.09128408,-0.4096315,-0.08695175,0.9030682,11.05941,16.67689,-30.58992,990.0447
0.617116451,-0.104934,-0.06093927,-0.09124585,-0.40966,-0.08352169,0.9022072,11.05941,16.67689,-30.58992,990.0447
0.622033596,0.01877373,0.116798,-0.03028968,-0.4116722,-0.08439632,0.8958837,11.05941,16.67689,-30.58992,990.0447
0.626950741,0.01878134,-0.1793661,-0.0911695,-0.4111685,-0.08200923,0.8988694,11.05941,16.67689,-30.58992,990.0447
0.631867886,-0.04303195,-0.001610217,-0.3348033,-0.4116892,-0.08388169,0.8944438,11.05941,16.67689,-30.58992,990.0447
0.636784554,0.0187383,-0.06074918,-0.1518007,-0.4101638,-0.08590879,0.8992217,11.05941,16.67689,-30.58992,990.0447
0.641702175,0.1423683,-0.1791957,-0.02983107,-0.4111745,-0.08344427,0.8973668,11.05941,16.67689,-30.58992,990.0447
0.646619320,-0.1666702,-0.1198688,-0.0297932,-0.4106429,-0.08352147,0.9017298,11.05941,16.67689,-30.58992,990.0447
0.651536465,-0.1666044,-0.06059764,-0.2734847,-0.4116886,-0.08147182,0.8959777,11.05941,16.67689,-30.58992,990.0441
0.656454086,0.08068672,-0.1790628,-0.02964095,-0.4096479,-0.08402725,0.9031621,11.05941,16.67689,-30.58992,990.0441
0.663829804,-0.1047161,-0.1788384,-0.1515447,-0.4130757,-0.0874248,0.9006535,11.05941,16.67689,-30.58992,990.0441
0.668747902,0.08071525,-0.1195489,-0.09053153,-0.4072342,-0.08587316,0.8987132,11.05941,16.67689,-30.58992,990.0441
0.673664570,0.0189213,-0.119511,-0.09047464,-0.410164,-0.08253315,0.9012721,11.05941,16.67689,-30.58992,990.0441
0.678581715,-0.04287259,-0.0009884165,-0.151355,-0.4120802,-0.08552069,0.9036196,11.05941,16.67689,-30.58992,990.0441
0.683498860,-0.0428651,-0.06018367,0.03151325,-0.4101113,-0.08359867,0.9060928,11.05941,16.67689,-30.58992,990.0441
0.688416004,-0.04283821,-0.1193789,-0.09034254,-0.4101501,-0.08834587,0.8991434,11.05941,16.67689,-30.58992,990.0441
0.693336964,-0.04279187,-0.0008751769,-0.02940607,-0.4067899,-0.08288981,0.895892,11.05941,16.67689,-30.58992,990.045
0.698250771,-0.289932,-0.06010772,-0.02940674,-0.4086643,-0.08499323,0.903123,11.05941,16.67689,-30.58992,990.045
0.703167916,-0.04256341,-0.1784803,0.03152973,-0.4140864,-0.08496028,0.8987987,11.05941,16.67689,-30.58992,990.045
0.708089352,0.08102743,-0.05992068,-0.09028777,-0.4081312,-0.08700196,0.906453,11.05941,16.67689,-30.58992,990.045
0.713002682,-0.1662099,-0.05990158,-0.09023104,-0.4111588,-0.08540301,0.8977894,11.05941,16.67689,-30.58992,990.045
0.717919827,-0.04252197,-0.05986395,-0.02925638,-0.4101874,-0.08586344,0.8967956,11.05941,16.67689,-30.58992,990.045
0.725296021,-0.04248188,-0.178255,-0.09022339,-0.4101731,-0.0892663,0.8962009,11.05941,16.67689,-30.58992,990.045
0.730213165,0.01938512,-0.05971421,-0.02924873,-0.4081792,-0.0859455,0.9021174,11.05941,16.67689,-30.58992,990.045
0.735130310,-0.1660898,-0.178087,-0.0901675,-0.4151098,-0.08440009,0.8944553,11.05941,16.67689,-30.58992,990.0456
0.740047932,-0.04238247,-0.1779937,0.09266228,-0.4096447,-0.09126595,0.8990456,11.05941,16.67689,-30.58992,990.0456
0.744965076,-0.1041379,0.118246,-0.02925109,-0.4125983,-0.08450493,0.9012288,11.42294,17.41977,-30.94973,990.0456
0.749882221,-0.1040725,-0.0003315817,-0.1511261,-0.4102187,-0.08194596,0.8959504,11.42294,17.41977,-30.94973,990.0456
0.754799366,0.01953758,-0.05956435,-0.02915694,-0.4086825,-0.08592272,0.9006656,11.42294,17.41977,-30.94973,990.0456
0.759716988,0.2049103,-0.1187786,-0.02915778,-0.4082549,-0.08580039,0.8943541,11.42294,17.41977,-30.94973,990.0456
0.764635563,-0.2277705,-0.1186853,-0.02917778,-0.4117141,-0.08528046,0.8910004,11.42294,17.41977,-30.94973,990.0456
0.769550800,-0.0423007,-0.0001447703,-0.1510337,-0.4130495,-0.08458192,0.9051142,11.42294,17.41977,-30.94973,990.0456
0.774467945,0.01952732,-0.2370769,0.09273311,-0.4116561,-0.08394518,0.8978403,11.42294,17.41977,-30.94973,990.0467
0.779385567,-0.1658894,-7.029442E-05,-0.02919941,-0.4112048,-0.0838682,0.8939548,11.42294,17.41977,-30.94973,990.0467
0.786761284,0.01951606,-0.05930329,-0.02917188,-0.4062725,-0.0829398,0.8987994,11.42294,17.41977,-30.94973,990.0467
0.791678429,-0.1040991,-0.1777135,-0.09014811,-0.4135979,-0.08736574,0.897261,11.41744,17.43465,-31.39667,990.0467
0.796596050,0.1431527,-0.1184433,0.03180194,-0.4115624,-0.09232198,0.9024262,11.41744,17.43465,-31.39667,990.0467
0.801513195,-0.2276683,-0.1775833,-0.21189,-0.4140818,-0.08159371,0.9013343,11.41744,17.43465,-31.39667,990.0467
0.806430340,-0.04215974,0.1778334,-0.08990178,-0.4086723,-0.08690663,0.9011196,11.41744,17.43465,-31.39667,990.0467
0.811347961,-0.1039153,0.118563,0.09296614,-0.4082223,-0.08827375,0.8962167,11.41744,17.43465,-31.39667,990.0416
0.816265106,0.0197141,5.967115E-05,-0.08988454,-0.4102053,-0.08100741,0.8979225,11.41744,17.43465,-31.39667,990.0416
0.821182251,0.01974057,0.05925537,-0.02889093,-0.4116033,-0.08501071,0.902661,11.41744,17.43465,-31.39667,990.0416
0.826099396,0.08151023,-0.05924791,0.09300148,-0.4116372,-0.08398145,0.8997811,11.41744,17.43465,-31.39667,990.0416
0.831017017,0.01967696,0.05923673,-0.02885465,-0.4097006,-0.08296172,0.8983412,11.41744,17.43465,-31.39667,990.0416
0.835934162,-0.04211746,-3.356502E-05,-0.1506917,-0.4106928,-0.08294336,0.8968934,11.41744,17.43465,-31.39667,990.0416
0.840851307,-0.1656745,2.226367E-05,-0.08971729,-0.4130466,-0.08844499,0.9030483,11.05189,17.0563,-30.96177,990.0416
0.845768928,-0.04196748,-0.05919208,0.03221337,-0.4125752,-0.08696017,0.9021209,11.05189,17.0563,-30.96177,990.0416
0.853144646,-0.04185033,7.820537E-05,-0.08957641,-0.4115633,-0.08798057,0.9049931,11.05189,17.0563,-30.96177,990.0427
0.858061790,-0.04180464,5.955814E-05,-0.150419,-0.4135973,-0.08495586,0.8987948,11.05189,17.0563,-30.96177,990.0427
0.862979412,-0.2889843,-0.05915491,-0.08946395,-0.413573,-0.08596697,0.9007043,11.05189,17.0563,-30.96177,990.0427
0.867896557,-0.04167452,0.0001152738,-0.08944605,-0.4111777,-0.08536673,0.8958486,11.05189,17.0563,-30.96177,990.0427
0.872813702,-0.04164834,-0.0590993,-0.2722013,-0.4081947,-0.08736241,0.8996444,11.05189,17.0563,-30.96177,990.0427
0.877731323,-0.1033848,-0.05913671,-0.02833913,-0.4071809,-0.08452881,0.9050678,11.05189,17.0563,-30.96177,990.0427
0.882648468,-0.1033393,-0.1775656,-0.02832134,-0.4116419,-0.08397239,0.8992959,11.05189,17.0563,-30.96177,990.0427
0.887565613,0.02032861,0.000133356,-0.02830356,-0.4111655,-0.08587229,0.8968034,11.05189,17.0563,-30.96177,990.0427
0.892482758,-0.04146622,-0.05908122,-0.08922291,-0.4115986,-0.08501978,0.9031463,11.05189,17.0563,-30.96177,990.0419
0.897400379,-0.1032223,-0.05906269,-0.1500657,-0.410138,-0.08885143,0.9000981,11.05189,17.0563,-30.96177,990.0419
0.902317047,-0.1649395,-0.05898832,-0.02811631,-0.4111867,-0.08293872,0.8964121,11.05189,17.0563,-30.96177,990.0419
0.907234192,0.02052971,-0.1181099,-0.02806036,-0.4130814,-0.08307432,0.9027352,11.05189,17.0563,-30.96177,990.0419
0.912151337,-0.2266891,0.05964482,-0.08896073,-0.4092245,-0.08148597,0.8978992,11.05189,17.0563,-30.96177,990.0419
0.919527531,-0.04109049,-0.1180174,-0.02799717,-0.4101769,-0.08106182,0.9008337,11.05189,17.0563,-30.96177,990.0419
0.924444675,0.02067858,-0.1772135,-0.08887844,-0.4111986,-0.08580881,0.8934069,11.05189,17.0563,-30.96177,990.0419
0.929361820,-0.1646806,0.119063,-0.08886088,-0.4126767,-0.08387241,0.8934811,11.05189,17.0563,-30.96177,990.0419
0.934279442,0.08255111,-0.1179067,-0.02786794,-0.4116155,-0.08450516,0.9017062,11.05189,17.0563,-30.96177,990.0385
0.939196587,-0.04104545,-0.05858102,0.09396642,-0.4097499,-0.08334936,0.8929883,10.68084,16.69282,-30.97382,990.0385
0.944113731,0.02078181,0.0006701703,-0.08882746,-0.4097098,-0.08631922,0.8953205,10.68084,16.69282,-30.97382,990.0385
0.949030876,0.08255082,0.1191545,-0.2106268,-0.4116048,-0.08307918,0.903694,10.68084,16.69282,-30.97382,990.0385
0.953948498,0.08251839,-0.1770484,0.1550901,-0.4092086,-0.08682035,0.8962714,10.68084,16.69282,-30.97382,990.0385
0.958865643,-0.1029184,-0.1177228,-0.08871765,-0.4106643,-0.08637342,0.8977543,10.68084,16.69282,-30.97382,990.0385
0.963788509,-0.04103283,0.1784791,0.09409208,-0.4091864,-0.08493416,0.8997304,10.68084,16.69282,-30.97382,990.0385
0.968700409,-0.04100701,-0.1769382,-0.08872102,-0.4077418,-0.08005579,0.9003605,10.68084,16.69282,-30.97382,990.0385
0.973617554,0.1443649,0.06006783,-0.02770898,-0.4067668,-0.08534504,0.8967841,10.68084,16.69282,-30.97382,990.0378
0.978534698,-0.1646943,0.06003008,-0.1495659,-0.4101247,-0.08453722,0.9041206,10.68084,16.69282,-30.97382,990.0378
0.983452320,-0.0410073,-0.05841794,0.09420009,-0.4057563,-0.08443391,0.9006894,10.68084,16.69282,-30.97382,990.0378
0.990828037,-0.1645716,-0.05838155,-0.1494841,-0.4077586,-0.0829168,0.8968701,11.42575,17.05313,-30.96097,990.0378
0.995745182,-0.16441,-0.1176151,-0.1494285,-0.4126414,-0.08683319,0.895328,11.42575,17.05313,-30.96097,990.0378
1.000662804,0.08287974,0.0008690741,-0.02749863,-0.4082314,-0.0824701,0.8988305,11.42575,17.05313,-30.96097,990.0378
1.005579948,-0.1025185,-0.1768491,-0.02748136,-0.4087009,-0.08347656,0.9002587,11.42575,17.05313,-30.96097,990.0378
1.010497093,0.08293092,-0.1767566,-0.0274641,-0.4106493,-0.08736639,0.8986934,11.42575,17.05313,-30.96097,990.0378
1.015414715,0.02111616,0.06026797,-0.08838397,-0.4112476,-0.08041093,0.8916383,11.42575,17.05313,-30.96097,990.0361
1.020331860,0.08292378,0.0010343,-0.2101644,-0.4145668,-0.08401708,0.9002895,11.42575,17.05313,-30.96097,990.0361
1.025249004,-0.1025327,-0.2358612,0.09463416,-0.410647,-0.08110252,0.9027784,11.42575,17.05313,-30.96097,990.0361
1.030166149,-0.04070562,0.1788438,-0.08816013,-0.4111528,-0.08396796,0.899292,11.42575,17.05313,-30.96097,990.0361
1.035083771,-0.04064118,-0.1173965,-0.2709162,-0.4126531,-0.08391775,0.8959072,11.42575,17.05313,-30.96097,990.0361
1.042459488,-0.04060291,-0.05799708,-0.08790693,-0.4140829,-0.08641347,0.8982666,11.0575,16.32301,-30.98425,990.0361
1.047376156,0.0212435,-0.05797923,-0.1487697,-0.4067141,-0.08641057,0.9016049,11.0575,16.32301,-30.98425,990.0361
1.052293301,-0.04053246,0.06048609,-0.1486763,-0.4125976,-0.0854707,0.9007123,11.0575,16.32301,-30.98425,990.0355
1.057210922,-0.04048759,-0.2949129,-0.08756915,-0.4087036,-0.08298914,0.9002743,11.0575,16.32301,-30.98425,990.0355
1.062128067,-0.102186,-0.1171029,0.09523985,-0.4107158,-0.08386377,0.8939509,11.0575,16.32301,-30.98425,990.0355
1.067045212,0.02140351,-0.05777772,-0.148492,-0.4111421,-0.082542,0.9012797,11.0575,16.32301,-30.98425,990.0355
1.071962833,-0.1639755,-0.1169373,-0.0874807,-0.4101551,-0.08496115,0.9007086,11.0575,16.32301,-30.98425,990.0355
1.076885700,-0.1021099,-0.05757498,-0.1483246,-0.4121931,-0.08289315,0.8935086,11.0575,16.32301,-30.98425,990.0355
1.081797123,0.02149896,0.001712833,-0.1482506,-0.4091912,-0.08492509,0.8992452,11.0575,16.32301,-30.98425,990.0355
1.086714268,-0.04027718,-0.1759316,-0.1481957,-0.4135968,-0.08254598,0.9003287,11.0575,16.32301,-30.98425,990.0355
1.091631889,-0.225598,-0.116588,-0.2090398,-0.4063262,-0.07753287,0.8965455,10.68275,17.04671,-30.57949,990.0364
1.096549034,-0.1019504,-0.1757292,-0.2088893,-0.4175879,-0.08773438,0.8890278,10.68275,17.04671,-30.57949,990.0364
1.103924751,0.1453709,-0.2347594,0.1569495,-0.4097091,-0.08728499,0.894804,10.68275,17.04671,-30.57949,990.0364
1.108842373,0.02169606,-0.1754161,-0.02588394,-0.4116657,-0.0805514,0.8989202,10.68275,17.04671,-30.57949,990.0364
1.113759518,-0.1636832,-0.1160356,-0.08682396,-0.4141058,-0.08733389,0.8953241,10.68275,17.04671,-30.57949,990.0364
1.118676662,0.08360609,-0.1159069,-0.2696,-0.4092041,-0.08345377,0.898807,10.68275,17.04671,-30.57949,990.0364
1.123594284,0.02175207,-0.4119249,-0.1475754,-0.4097583,-0.07851147,0.8950857,10.68275,17.04671,-30.57949,990.0364
1.128511429,-0.1018451,-0.3524889,-0.0256276,-0.4081922,-0.08447418,0.9016791,10.68275,17.04671,-30.57949,990.0364
1.133431911,-0.03996023,-0.2338572,-0.08654864,-0.4106734,-0.08056976,0.9003681,10.68275,17.04671,-30.57949,990.0374
1.138346195,0.02186632,-0.292962,-0.1474123,-0.4106874,-0.08391819,0.8968621,11.43046,17.04037,-30.57788,990.0374
1.143263340,-0.1635906,-0.1151347,-0.2081994,-0.4072755,-0.08434742,0.8953637,11.43046,17.04037,-30.57788,990.0374
1.162932873,-0.03992638,-0.233163,-0.1467205,-0.4122061,-0.08142182,0.8930703,11.43046,17.04037,-30.57788,990.0374
1.170308590,-0.1015738,-0.2330364,-0.2075194,-0.40916,-0.08546693,0.9021407,11.43046,17.04037,-30.57788,990.0374
1.175225735,-0.10151,-0.2328713,-0.08553394,-0.4072827,-0.08722658,0.8928438,11.43046,17.04037,-30.57788,990.038
1.180142880,-0.2250686,-0.05510032,-0.2682534,-0.4130874,-0.08450936,0.9012327,11.43046,17.04037,-30.57788,990.038
1.185060024,-0.1013631,-0.1142801,-0.2680657,-0.4082394,-0.08438348,0.896827,11.43046,17.04037,-30.57788,990.038
1.189977646,-0.10128,-0.1141897,-0.1460613,-0.4062414,-0.08348164,0.901695,11.0575,16.32301,-30.98425,990.038
1.194894314,-0.03943433,-0.1141366,0.158697,-0.4101844,-0.08056533,0.9003642,11.0575,16.32301,-30.98425,990.038
1.199811459,-0.1012304,-0.1733351,-0.1460309,-0.4131593,-0.08003192,0.8965214,11.0575,16.32301,-30.98425,990.038
1.204728603,0.02239735,0.004454316,-0.2068955,-0.4096158,-0.08891049,0.9034907,11.0575,16.32301,-30.98425,990.038
1.209645748,0.0841653,0.004507319,-0.02397324,-0.4121364,-0.08300198,0.899331,11.0575,16.32301,-30.98425,990.038
1.214563370,0.02225267,-0.2916048,-0.1457942,-0.4072395,-0.08827397,0.8966941,11.0575,16.32301,-30.98425,990.0391
1.219480515,0.02225809,-0.05454531,-0.08478458,-0.4135948,-0.08206763,0.9008296,11.0575,16.32301,-30.98425,990.0391
1.226856709,-0.03952553,-0.05438234,-0.3283193,-0.4087414,-0.08291659,0.8963927,11.0575,16.32301,-30.98425,990.0391
1.231773853,-0.2249439,-0.1727585,-0.2672141,-0.4131043,-0.08399473,0.8997927,11.0575,16.32301,-30.98425,990.0391
1.236690998,0.2077689,-0.231883,-0.145172,-0.4072942,-0.08768679,0.8913726,11.42855,16.68648,-30.9722,990.0391
1.241608143,-0.03950926,-0.1725042,-0.2669934,-0.4111339,-0.08400424,0.9012328,11.42855,16.68648,-30.9722,990.0391
1.246525765,0.207702,-0.1723958,-0.1449322,-0.4096625,-0.08640992,0.9001725,11.42855,16.68648,-30.9722,990.0391
1.251442909,-0.1014163,-0.2315019,-0.02294773,-0.407784,-0.08672545,0.8918929,11.42855,16.68648,-30.9722,990.0391
1.256360054,-0.1014109,-0.3497853,-0.02293331,-0.4110812,-0.08506977,0.9060536,11.42855,16.68648,-30.9722,990.04
1.261277676,0.1458199,-0.1127078,-0.02288061,-0.4097317,-0.08241989,0.8954457,11.42855,16.68648,-30.9722,990.04
1.266194820,0.08390748,-0.2310474,-0.2666148,-0.4101772,-0.08684734,0.8972495,11.42855,16.68648,-30.9722,990.04
1.271111965,0.08385477,-0.1716878,-0.1446113,-0.4057248,-0.09172703,0.8994842,11.42855,16.68648,-30.9722,990.04
1.276029587,0.1455842,-0.05311388,0.03825266,-0.4087267,-0.08053391,0.8993822,11.42855,16.68648,-30.9722,990.04
1.280946732,0.08373008,-0.2307795,0.0382669,-0.408222,-0.08248824,0.899801,11.42855,16.68648,-30.9722,990.04
1.288322449,0.02183036,-0.1120773,-0.02268718,-0.412166,-0.08439168,0.8954024,11.43046,17.04037,-30.57788,990.04
1.293240070,0.08361812,-0.05279247,-0.08359092,-0.4106332,-0.08691525,0.9006498,11.43046,17.04037,-30.57788,990.0394
1.298157215,0.145367,-0.112011,-0.08350012,-0.4106896,-0.0810209,0.8984116,11.43046,17.04037,-30.57788,990.0394
1.303074360,0.08343541,-0.05267041,0.09934463,-0.4111334,-0.08159436,0.9027667,11.43046,17.04037,-30.57788,990.0394
1.307991505,0.08338299,0.006577162,-0.02257292,-0.4087232,-0.08198711,0.89885,11.43046,17.04037,-30.57788,990.0394
1.312909126,0.02154855,-0.2303219,-0.02252045,-0.4086668,-0.08788146,0.9010882,11.43046,17.04037,-30.57788,990.0394
1.317826271,-0.1020679,-0.2301773,-0.02246802,-0.4102322,-0.08288451,0.8939783,11.43046,17.04037,-30.57788,990.0394
1.322743416,0.1451438,-0.1116598,0.0993821,-0.4102431,-0.08093484,0.8940409,11.43046,17.04037,-30.57788,990.0394
1.327661038,-0.1021145,-0.1115524,-0.02243974,-0.4077307,-0.0853811,0.8982475,11.43046,17.04037,-30.57788,990.0394
1.332578182,-0.04028767,-0.1114823,-0.0833819,-0.4106692,-0.0829887,0.8993194,11.43046,17.04037,-30.57788,990.0403
1.337498188,-0.04026232,-0.0521979,-0.08331037,-0.4117118,-0.07901659,0.8950855,11.05189,17.0563,-30.96177,990.0403
1.342412949,-0.04029528,-0.05216513,-0.08325805,-0.4106826,-0.08392726,0.8973473,11.05189,17.0563,-30.96177,990.0403
1.347330093,-0.04025053,-0.1705613,-0.265998,-0.4096887,-0.0892528,0.8957118,11.05189,17.0563,-30.96177,990.0403
1.352246761,0.08337769,0.00718913,-0.08307694,-0.4092095,-0.08247895,0.8988383,11.05189,17.0563,-30.96177,990.0403
1.357163906,-0.0402582,-0.111207,0.03884954,-0.4116743,-0.08487467,0.8953829,11.05189,17.0563,-30.96177,990.0403
1.364539623,0.02160061,-0.1703166,-0.2048208,-0.4057951,-0.08001994,0.8993746,11.05189,17.0563,-30.96177,990.0403
1.369457245,0.02160644,-0.3478715,-0.08287527,-0.4086512,-0.0898402,0.9015108,11.05189,17.0563,-30.96177,990.0403
1.374374390,0.08341371,-0.1700283,-0.02192436,-0.4082511,-0.08146805,0.8974062,11.05189,17.0563,-30.96177,990.0386
1.379291535,0.02157926,-0.1106512,-0.08279032,-0.4150058,-0.08459962,0.9051297,11.05189,17.0563,-30.96177,990.0386
1.384209156,0.0215851,-0.1105445,-0.2655689,-0.4121631,-0.08825474,0.8933364,11.05189,17.0563,-30.96177,990.0386
1.389126301,0.02161039,-0.1697453,-0.08264804,-0.4057376,-0.08109455,0.9046806,11.43136,16.31984,-30.98344,990.0386
1.394043446,0.2069624,-0.1696386,-0.2044321,-0.4092364,-0.08435605,0.894894,11.43136,16.31984,-30.98344,990.0386
1.398961067,0.08326827,0.008129742,-0.2043037,-0.4072004,-0.08690242,0.9015931,11.43136,16.31984,-30.98344,990.0386
1.403878212,-0.04040641,-0.4064135,0.1614284,-0.4097162,-0.08100298,0.8979186,11.43136,16.31984,-30.98344,990.0386
1.408795357,0.02140104,0.00836142,-0.02140789,-0.4097242,-0.08291636,0.8959152,11.43136,16.31984,-30.98344,990.0386
1.413712502,0.08318909,0.008374755,-0.02135615,-0.4082191,-0.08635129,0.8977349,11.43136,16.31984,-30.98344,990.0396
1.418630123,0.083098,-0.05080773,0.1004932,-0.4096837,-0.08347633,0.8997812,11.43136,16.31984,-30.98344,990.0396
1.426005840,0.0830197,0.008473077,-0.2043063,-0.4111332,-0.08497,0.9007163,11.43136,16.31984,-30.98344,990.0396
1.430923462,0.02116609,-0.2284644,0.03953236,-0.4106265,-0.08644598,0.9016359,11.43136,16.31984,-30.98344,990.0396
1.435840607,0.1447752,-0.1691066,0.03952669,-0.4097073,-0.08343099,0.8973552,11.05189,17.0563,-30.96177,990.0396
1.440757752,0.08286329,0.06789458,-0.02141611,-0.4082645,-0.08240661,0.8954341,11.05189,17.0563,-30.96177,990.0396
1.445674896,-0.04079176,-0.1098286,-0.02140268,-0.406683,-0.0869524,0.9045005,11.05189,17.0563,-30.96177,990.0396
1.450592518,0.02109363,0.1271539,-0.08236464,-0.408717,-0.0839277,0.8983022,11.05189,17.0563,-30.96177,990.0396
1.455509663,0.02111916,0.00862655,-0.08238947,-0.4106048,-0.08696967,0.903561,11.05189,17.0563,-30.96177,990.0422
1.460426808,0.02110584,-0.05059322,0.1004737,-0.4067755,-0.08629267,0.8952972,11.05189,17.0563,-30.96177,990.0422
1.465344429,-0.226055,-0.1097759,0.03943516,-0.4135588,-0.08599418,0.9021599,11.05189,17.0563,-30.96177,990.0422
1.470261574,-0.1023295,0.1272251,0.0394104,-0.4101658,-0.08638714,0.8987208,11.05189,17.0563,-30.96177,990.0422
1.475178719,-0.04046378,-0.05051671,0.03938564,-0.4071578,-0.08698404,0.90596,11.05189,17.0563,-30.96177,990.0422
1.480095863,0.02134367,0.00874804,0.03936087,-0.411165,-0.08346241,0.8983372,11.05189,17.0563,-30.96177,990.0422
1.485013485,0.08317058,-0.05052768,-0.2044124,-0.4116086,-0.08741152,0.9006419,11.05469,16.68965,-30.97301,990.0422
1.489930630,-0.04044574,0.008774372,-0.08242885,-0.4096929,-0.08683385,0.8967605,11.05469,16.68965,-30.97301,990.0422
1.497306824,-0.04052409,-0.2280916,0.03952312,-0.4122283,-0.08330801,0.8896113,11.05469,16.68965,-30.97301,990.0433
1.502223969,0.02126402,-0.2872185,0.03953658,-0.4091702,-0.08448303,0.9016868,11.05469,16.68965,-30.97301,990.0433
1.507141113,-0.1023329,-0.1093576,-0.08234339,-0.4086568,-0.08548971,0.9035925,11.05469,16.68965,-30.97301,990.0433
1.512058258,0.02129544,-0.05009302,-0.02139283,-0.4106677,-0.08492023,0.8982864,11.05469,16.68965,-30.97301,990.0433
1.516974926,-0.04046113,-0.2277792,-0.08231654,-0.4058098,-0.08240262,0.8963851,11.05469,16.68965,-30.97301,990.0433
1.521892548,0.08310896,0.009221453,0.2224017,-0.4057812,-0.08583269,0.897246,11.05469,16.68965,-30.97301,990.0433
1.526809693,-0.1023476,-0.1092131,-0.08236624,-0.4072546,-0.08390535,0.8978054,11.05469,16.68965,-30.97301,990.0433
1.531726837,-0.04052067,0.009321583,0.1613766,-0.4072402,-0.08730821,0.8972107,11.05469,16.68965,-30.97301,990.0433
1.536644459,0.2067689,0.009334354,-0.08237758,-0.4155279,-0.08454056,0.9017372,11.05469,16.68965,-30.97301,990.0439
1.541561604,-0.1641504,-0.1683334,0.03952934,-0.408234,-0.08535831,0.8967957,11.05469,16.68965,-30.97301,990.0439
1.546478748,-0.04052197,-0.04979885,-0.08236976,-0.4057247,-0.08256587,0.9051188,11.05469,16.68965,-30.97301,990.0439
1.551395893,-0.0404965,0.009484096,0.100436,-0.4067663,-0.08293516,0.898318,11.05469,16.68965,-30.97301,990.0439
1.556313515,0.02131095,-0.1682209,-0.02144396,-0.4111765,-0.08392262,0.896866,11.05469,16.68965,-30.97301,990.0439
1.561230660,-0.04058157,0.009509524,-0.1433239,-0.4092006,-0.08490696,0.8982748,11.05469,16.68965,-30.97301,990.0439
1.568606377,0.1448611,0.009612254,-0.0214677,-0.4107009,-0.08485675,0.89489,11.05469,16.68965,-30.97301,990.0439
1.573523998,0.0212254,-0.04962685,-0.02149253,-0.4047451,-0.08448855,0.9040781,11.05469,16.68965,-30.97301,990.0422
1.578441143,-0.1641535,-0.0496143,-0.02144073,-0.4110954,-0.08504257,0.904598,11.05469,16.68965,-30.97301,990.0422
1.583358288,0.08315554,-0.04960176,-0.0214464,-0.4126884,-0.08095697,0.8940603,11.05469,16.68965,-30.97301,990.0422
1.588275910,-0.164122,0.06891408,-0.02145207,-0.4077047,-0.09169939,0.8970737,11.42575,17.05313,-30.96097,990.0422
1.593193054,-0.1022563,-0.1088097,-0.08237571,-0.4111235,-0.0883638,0.8996364,11.42575,17.05313,-30.96097,990.0422
1.598110199,0.02137209,-0.2271888,0.1004492,-0.4140358,-0.08312851,0.905169,11.42575,17.05313,-30.96097,990.0422
1.603027821,-0.040404,0.009848904,-0.1433051,-0.408224,-0.08296657,0.8993,11.42575,17.05313,-30.96097,990.0422
1.607944966,-0.04037865,-0.04937178,-0.2650893,-0.4082402,-0.08341771,0.8973436,11.42575,17.05313,-30.96097,990.0422
1.612862110,0.0214482,-0.04934081,-0.1430868,-0.4096065,-0.08555298,0.9065115,11.42575,17.05313,-30.96097,990.0422
1.617779255,0.02143476,-0.1085428,-0.1430352,-0.4116633,-0.08682434,0.8953203,11.42575,17.05313,-30.96097,990.0433
1.622696877,-0.04032193,-0.1084374,-0.1429836,-0.4131576,-0.08533908,0.893438,11.42575,17.05313,-30.96097,990.0433
1.627614021,0.2069093,-0.2268167,0.1008165,-0.4086756,-0.08882909,0.8996013,11.42575,17.05313,-30.96097,990.0433
1.632531166,0.02149136,0.06945372,-0.1429954,-0.4072553,-0.08293959,0.8983219,11.42575,17.05313,-30.96097,990.0433
1.637453079,0.02147786,-0.2267179,0.03988671,-0.4096958,-0.08297078,0.8988265,11.42766,17.40701,-30.56664,990.0433
1.642365933,0.02148375,-0.04893227,-0.2037912,-0.4087036,-0.08298914,0.9002743,11.42766,17.40701,-30.56664,990.0433
1.649741650,0.02152172,0.06959849,-0.2036758,-0.4082178,-0.08490717,0.8987523,11.42766,17.40701,-30.56664,990.0433
1.654659271,0.02152762,-0.3449648,-0.08171181,-0.4091797,-0.08446489,0.9007164,11.42766,17.40701,-30.56664,990.0442
1.659576416,-0.1638515,-0.04865741,-0.2644911,-0.4087725,-0.08237476,0.8934971,11.42766,17.40701,-30.56664,990.0442
1.664493561,-0.0402039,0.1290908,-0.0815709,-0.4140426,-0.08359779,0.9041829,11.42766,17.40701,-30.56664,990.0442
1.669411183,-0.1019607,0.01059954,-0.08155794,-0.4072268,-0.08636965,0.8991827,11.42766,17.40701,-30.56664,990.0442
1.674328327,-0.04011457,-0.04862159,-0.08156413,-0.4106697,-0.08539858,0.8977855,11.42766,17.40701,-30.56664,990.0442
1.679245472,-0.2254744,-0.1670757,-0.08153201,-0.4082986,-0.07800171,0.8946045,11.42766,17.40701,-30.56664,990.0442
1.684162617,-0.04000598,-0.04850473,0.04041263,-0.4116615,-0.08297035,0.8978716,11.04908,17.42294,-30.95054,990.0442
1.689080239,0.02182063,-0.2261547,-0.2033613,-0.40967,-0.08591343,0.899703,11.04908,17.42294,-30.95054,990.0442
1.693996906,-0.03995569,-0.04836923,-0.2032719,-0.4067799,-0.08049808,0.8983963,11.04908,17.42294,-30.95054,990.0425
1.698914051,-0.1635141,-0.3444854,-0.1422262,-0.4101767,-0.08443746,0.8987834,11.04908,17.42294,-30.95054,990.0425
1.706289768,-0.1634377,-0.1073404,-0.142073,-0.4106956,-0.08245595,0.8969091,11.04908,17.42294,-30.95054,990.0425
1.711207390,-0.03980977,-0.1073102,-0.263858,-0.4067568,-0.0829533,0.8992884,11.04908,17.42294,-30.95054,990.0425
1.716124535,-0.03982362,-0.1072428,-0.1418754,-0.4091808,-0.08928466,0.8976488,11.04908,17.42294,-30.95054,990.0425
1.721041680,-0.1634016,-0.225623,-0.08086828,-0.411633,-0.08640041,0.8987324,11.04908,17.42294,-30.95054,990.0425
1.725959301,0.08386815,-0.1662669,-0.01986118,-0.4096793,-0.08927094,0.8966822,11.04908,17.42294,-30.95054,990.0425
1.730876446,0.0220722,0.07073247,-0.01986784,-0.4067488,-0.08103991,0.9012919,11.04908,17.42294,-30.95054,990.0425
1.735793591,-0.03972369,-0.04770358,-0.01985534,-0.4135839,-0.0840173,0.900767,10.67533,16.7077,-31.42076,990.0419
1.740711212,0.02208329,-0.04769216,0.1019931,-0.4126603,-0.08679692,0.8933872,10.67533,16.7077,-31.42076,990.0419
1.745628357,-0.1633155,-0.1068952,-0.0808441,-0.4076895,-0.08690684,0.901597,10.67533,16.7077,-31.42076,990.0419
1.750545502,-0.1632323,0.1893185,-0.2026676,-0.4102167,-0.08146761,0.8964513,10.67533,16.7077,-31.42076,990.0419
1.755462646,-0.1013672,-0.1661428,-0.01974797,-0.4087036,-0.08298914,0.9002743,10.67533,16.7077,-31.42076,990.0419
1.762838840,-0.2248552,-0.1068835,0.04124605,-0.4101548,-0.0883368,0.8986582,10.67533,16.7077,-31.42076,990.0419
1.767755985,-0.1629319,0.07082694,-0.08069243,-0.4140528,-0.08261389,0.903729,10.67533,16.7077,-31.42076,990.0419
1.772673130,-0.03924602,0.07076377,-0.08068005,-0.4067797,-0.08387372,0.8963459,10.67533,16.7077,-31.42076,990.0419
1.777590752,-0.1627855,0.1299338,0.04126407,-0.4106767,-0.08249222,0.8988499,10.67533,16.7077,-31.42076,990.0367
1.782507896,-0.03908029,-0.1070427,0.1021753,-0.4082088,-0.0873352,0.8981888,10.30417,17.06263,-30.96339,990.0367
1.787425041,-0.03907516,0.01149065,-0.08068121,-0.4092506,-0.08432885,0.8934383,10.30417,17.06263,-30.96339,990.0367
1.792342663,0.08459114,0.1299309,-0.01971254,-0.4092284,-0.08244267,0.8968974,10.30417,17.06263,-30.96339,990.0367
1.797259808,-0.2862514,-0.1070642,-0.08065645,-0.4135906,-0.08448657,0.8997809,10.30417,17.06263,-30.96339,990.0367
1.802176952,0.0228387,0.07072071,-0.2024801,-0.40823,-0.08440162,0.8977975,10.30417,17.06263,-30.96339,990.0367
1.807094574,-0.286183,-0.1069484,-0.141454,-0.4125971,-0.08306082,0.9022461,10.30417,17.06263,-30.96339,990.0367
1.812011719,0.08474732,0.07083643,-0.1413652,-0.4062909,-0.08049365,0.8983924,10.30417,17.06263,-30.96339,990.0367
1.816928863,-0.224255,-0.1661215,0.1024722,-0.4082502,-0.08580946,0.8948393,10.30417,17.06263,-30.96339,990.0378
1.821846008,-0.2241724,-0.1659985,-0.1413024,-0.408711,-0.08249266,0.8998048,10.30417,17.06263,-30.96339,990.0378
1.826763630,0.02313555,-0.1066612,-0.1412328,-0.4052947,-0.08871648,0.8952074,10.30417,17.06263,-30.96339,990.0378
1.834139347,-0.1622712,-0.165775,0.1025914,-0.4096979,-0.08344913,0.8983256,11.05189,17.0563,-30.96177,990.0378
1.839056492,-0.1004067,-0.04726068,-0.08024615,-0.4081449,-0.08456487,0.9065312,11.05189,17.0563,-30.96177,990.0378
1.843974113,-0.1621257,-0.1656971,-0.08017659,-0.4072295,-0.08588223,0.8991984,11.05189,17.0563,-30.96177,990.0378
1.848891258,0.02343883,0.1305163,-0.08014535,-0.4106804,-0.08682456,0.8957977,11.05189,17.0563,-30.96177,990.0378
1.853808403,-0.03837735,0.07120124,-0.201931,-0.412557,-0.08603068,0.9045783,11.05189,17.0563,-30.96177,990.0327
1.858726025,-0.03837263,-0.1657756,-0.2018616,-0.4082407,-0.0858276,0.8958097,11.05189,17.0563,-30.96177,990.0327
1.863643169,-0.1001306,-0.1656528,-0.01890421,-0.4107262,-0.07950423,0.8955473,11.05189,17.0563,-30.96177,990.0327
1.868560314,-0.1000483,-0.1063529,-0.1407283,-0.4111201,-0.08981698,0.8991042,11.05189,17.0563,-30.96177,990.0327
1.873477936,-0.1617481,-0.2247707,0.103147,-0.4106603,-0.08541672,0.898756,11.05189,17.0563,-30.96177,990.0327
1.878395081,-0.03810173,-0.1061448,-0.1406281,-0.4082527,-0.08869769,0.8928046,11.05189,17.0563,-30.96177,990.0327
1.883311748,-0.03807779,0.1307981,-0.07960262,-0.4096767,-0.08638271,0.8987169,10.68084,16.69282,-30.97382,990.0327
1.888228893,-0.09985535,-0.04694583,-0.201446,-0.4106021,-0.08745709,0.9035454,10.68084,16.69282,-30.97382,990.0327
1.893146038,0.02377146,0.01229813,-0.2013578,-0.4087026,-0.08733055,0.8977075,10.68084,16.69282,-30.97382,990.0327
1.898063660,0.02375649,-0.04684965,-0.07935698,-0.4106985,-0.07859288,0.8989751,10.68084,16.69282,-30.97382,990.0353
1.902980804,-0.09986142,-0.1060346,-0.3230365,-0.4076543,-0.08649198,0.9054943,10.68084,16.69282,-30.97382,990.0353
1.910356522,-0.09976732,-0.1651678,-0.1400547,-0.4097397,-0.08433327,0.8934422,10.68084,16.69282,-30.97382,990.0353
1.915274143,-0.03788376,-0.2243529,0.103801,-0.4116319,-0.08158065,0.9018002,10.68084,16.69282,-30.97382,990.0353
1.920191288,0.02396089,0.01270159,-0.0790948,-0.4096931,-0.0834582,0.8988108,10.68084,16.69282,-30.97382,990.0353
1.925108433,-0.1614391,-0.04657661,-0.2618566,-0.4066988,-0.08161802,0.9061283,10.68084,16.69282,-30.97382,990.0353
1.930026054,-0.03771532,-0.2241906,-0.200774,-0.4082043,-0.08396862,0.9007244,10.68084,16.69282,-30.97382,990.0353
1.934943199,-0.03765277,-0.1056582,-0.2006479,-0.4092277,-0.08340843,0.896381,11.04728,16.35064,-31.81428,990.0364
1.939860344,-0.09948887,0.01287428,-0.2005602,-0.4107028,-0.08533509,0.8943891,11.04728,16.35064,-31.81428,990.0364
1.944777489,-0.03762488,-0.04636686,-0.01764189,-0.4096391,-0.08307962,0.904649,11.04728,16.35064,-31.81428,990.0364
1.949695110,-0.0376013,-0.105608,-0.2613411,-0.4092351,-0.08291194,0.8959113,11.04728,16.35064,-31.81428,990.0364
1.954612255,-0.03759711,-0.2240077,-0.01748578,-0.4105926,-0.08747523,0.9045159,11.04728,16.35064,-31.81428,990.0364
1.959529400,0.0860294,-0.0462422,-0.2002479,-0.4106968,-0.08390005,0.8958917,11.04728,16.35064,-31.81428,990.0364
1.964447021,-0.0376082,0.0722343,-0.01738727,-0.4106252,-0.08500186,0.9026533,11.04728,16.35064,-31.81428,990.0364
1.969364166,-0.09938605,-0.1054916,-0.07825607,-0.4102205,-0.08579995,0.8933992,11.04728,16.35064,-31.81428,990.0364
1.976739883,-0.2228954,-0.04619643,-0.07823977,-0.4106401,-0.08400889,0.9017141,11.04728,16.35064,-31.81428,990.0373
1.981657505,-0.1610315,-0.3422953,0.0436071,-0.4087054,-0.08684313,0.8977231,11.04908,17.42294,-30.95054,990.0373
1.986574650,-0.0373663,0.01322484,-0.07825631,-0.4067219,-0.0791628,0.9052361,11.04908,17.42294,-30.95054,990.0373
1.991491795,-0.09910547,-0.1052122,0.04364799,-0.4106625,-0.08251943,0.9003055,11.04908,17.42294,-30.95054,990.0373
1.996409416,-0.03729997,-0.1051834,-0.07815801,-0.4072566,-0.0843837,0.8973046,11.04908,17.42294,-30.95054,990.0373
2.001326561,0.08626812,-0.2235089,-0.1390652,-0.4101596,-0.08832774,0.898173,11.04908,17.42294,-30.95054,990.0373
2.006243706,-0.1609531,-0.04570663,-0.07807897,-0.4101835,-0.08490674,0.8977973,11.04908,17.42294,-30.95054,990.0373
2.011161327,-0.09901173,0.01353642,0.1047241,-0.4038096,-0.08439808,0.8997035,11.04908,17.42294,-30.95054,990.0373
2.016078472,0.2099996,0.01352783,0.04377859,-0.4116424,-0.08638227,0.897762,11.04908,17.42294,-30.95054,990.038
2.021000862,-0.2227427,0.01350071,-0.2609155,-0.4096777,-0.08204131,0.9012838,11.04908,17.42294,-30.95054,990.038
2.025912762,-0.03725652,-0.22344,-0.1998527,-0.413159,-0.08340755,0.894471,11.04908,17.42294,-30.95054,990.038
2.030830383,-0.09903455,0.0728283,-0.1388666,-0.4091275,-0.0879403,0.9040033,11.43327,16.67372,-30.58912,990.038
2.035748005,-0.09895295,-0.2233267,-0.07782307,-0.4156359,-0.08529773,0.890061,11.43327,16.67372,-30.58912,990.038
2.043123245,-0.09897612,0.07291848,-0.1996814,-0.4111698,-0.08345334,0.897852,11.43327,16.67372,-30.58912,990.038
2.048040867,-0.09891398,-0.1047892,-0.01678284,-0.4106426,-0.08689712,0.8996794,11.43327,16.67372,-30.58912,990.038
2.052958012,0.02475109,0.1914232,-0.01677232,-0.4066653,-0.0884328,0.9054239,11.43327,16.67372,-30.58912,990.038
2.057875156,-0.03706591,-0.104825,-0.1995541,-0.4097031,-0.08584994,0.8963066,11.43327,16.67372,-30.58912,990.0389
2.062792778,0.02468117,-0.04556333,-0.07759269,-0.4126503,-0.08440517,0.8958915,11.43327,16.67372,-30.58912,990.0389
2.067709923,-0.03711637,0.07296855,-0.07754395,-0.4091506,-0.08548507,0.9031112,11.43327,16.67372,-30.58912,990.0389
2.072627068,-0.1607154,-0.1047206,0.1052588,-0.4126516,-0.08584929,0.8948742,11.43327,16.67372,-30.58912,990.0389
2.077544689,0.2101556,0.01381127,-0.01668166,-0.4101922,-0.08585437,0.8963104,11.43327,16.67372,-30.58912,990.0389
2.082460880,0.08640118,0.07305422,-0.07764661,-0.4101862,-0.08441932,0.897813,10.66972,17.44099,-31.39829,990.0389
2.087378502,0.08636634,-0.1046908,-0.1384967,-0.4116703,-0.08391798,0.8963847,10.66972,17.44099,-31.39829,990.0389
2.092295647,-0.03727143,0.1323258,-0.01663111,-0.4111242,-0.08739803,0.9001529,10.66972,17.44099,-31.39829,990.0389
2.097212791,0.08635496,0.01381387,0.04433564,-0.4126276,-0.08010911,0.9008844,10.66972,17.44099,-31.39829,990.0383
2.104588985,-0.09907258,0.01376369,0.1052119,-0.4096727,-0.085426,0.8997186,10.66972,17.44099,-31.39829,990.0383
2.109506130,0.08625815,-0.04549654,-0.01674767,-0.4083036,-0.08377816,0.8905351,10.66972,17.44099,-31.39829,990.0383
2.114423275,-0.03736017,-0.1047382,-0.138554,-0.4107339,-0.08479326,0.8914936,10.66972,17.44099,-31.39829,990.0383
2.119340897,-0.09917699,-0.1046725,-0.01665009,-0.4116526,-0.08539836,0.8973081,10.66972,17.44099,-31.39829,990.0383
2.124258041,-0.03733263,-0.04539234,0.2270706,-0.4136185,-0.08202229,0.8984035,10.66972,17.44099,-31.39829,990.0383
2.129175186,0.08621605,-0.2230816,-0.01674401,-0.4091633,-0.08738939,0.9006225,11.42575,17.05313,-30.96097,990.0383
2.134092808,-0.2845498,0.01395344,-0.01673348,-0.40968,-0.08830517,0.8971987,11.42575,17.05313,-30.96097,990.0383
2.139009953,-0.03718459,-0.04528837,0.04419502,-0.4111819,-0.08294778,0.8968973,11.42575,17.05313,-30.96097,990.0332
2.143927097,-0.0372001,0.07318746,-0.07772619,-0.408717,-0.0839277,0.8983022,11.42575,17.05313,-30.96097,990.0332
2.148844242,0.08640678,-0.1637906,-0.01672107,-0.4101707,-0.08300242,0.900286,11.42575,17.05313,-30.96097,990.0332
2.153761864,0.02453159,0.1324589,0.04420743,-0.4136339,-0.08343919,0.8959305,11.42575,17.05313,-30.96097,990.0332
2.158679009,-0.03726583,-0.1044819,0.1050977,-0.4096469,-0.08836865,0.9005951,11.42575,17.05313,-30.96097,990.0332
2.163596153,0.1481037,-0.04523909,-0.0168235,-0.4086944,-0.07963164,0.9032952,11.42575,17.05313,-30.96097,990.0332
2.168513775,-0.03733546,0.19174,0.1050614,-0.4126367,-0.08684226,0.8958132,11.42575,17.05313,-30.96097,990.0332
2.173430920,-0.09913289,-0.282133,-0.01685981,-0.411613,-0.08161693,0.9037409,11.42575,17.05313,-30.96097,990.0332
2.178348064,-0.1608721,-0.2227228,-0.01686838,-0.4072566,-0.0843837,0.8973046,11.42575,17.05313,-30.96097,990.0342
2.185724258,-0.03723411,0.01428887,0.1659781,-0.4096712,-0.08735754,0.8986856,11.04908,17.42294,-30.95054,990.0342
2.190641403,0.02459073,-0.04489734,0.1658546,-0.4126137,-0.08592185,0.8987558,11.04908,17.42294,-30.95054,990.0342
2.195558548,-0.09898879,-0.1633538,0.1048899,-0.4121315,-0.0863867,0.8977659,11.04908,17.42294,-30.95054,990.0342
2.200476170,-0.03720281,0.01442923,0.04390598,-0.4101585,-0.08350797,0.9012407,11.04908,17.42294,-30.95054,990.0342
2.205393314,-0.2225644,0.07361589,-0.01705876,-0.4092242,-0.08486161,0.8958488,11.04908,17.42294,-30.95054,990.0342
2.210310459,-0.03703962,-0.04489644,0.04388907,-0.4106545,-0.08060604,0.9023089,11.04908,17.42294,-30.95054,990.0342
2.215228081,0.02474631,0.07359781,0.1047987,-0.4076611,-0.08696125,0.9045083,11.04908,17.42294,-30.95054,990.0352
2.220145226,0.1483725,0.07353305,0.1047519,-0.4116004,-0.08887377,0.9005949,11.04908,17.42294,-30.95054,990.0352
2.225062370,0.08651668,0.07354265,0.04371069,-0.4086603,-0.08403653,0.9041247,11.04908,17.42294,-30.95054,990.0352
2.229979515,0.1482444,-0.104184,0.04370235,-0.410722,-0.08192319,0.8944986,11.05189,17.0563,-30.96177,990.0352
2.234897137,-0.03719491,-0.1041185,-0.01726223,-0.4136319,-0.08296083,0.8964314,11.05189,17.0563,-30.96177,990.0352
2.239814282,0.02459108,0.07362742,0.1655217,-0.4082526,-0.07953652,0.8984392,11.05189,17.0563,-30.96177,990.0352
2.244731426,-0.1607899,0.01440392,0.04356263,-0.4106419,-0.08786288,0.8991629,11.05189,17.0563,-30.96177,990.0352
2.249649048,-0.09886805,0.07364652,-0.0782816,-0.4121682,-0.08149438,0.896952,11.05189,17.0563,-30.96177,990.0352
2.254566193,0.02479702,0.073563,0.04358445,-0.4067924,-0.08577804,0.8938573,11.05189,17.0563,-30.96177,990.0352
2.261941910,-0.03698897,0.1328384,-0.1393255,-0.4101835,-0.08490674,0.8977973,11.05189,17.0563,-30.96177,990.0363
2.266859531,0.02483575,-0.0448883,0.04353519,-0.4087011,-0.08010092,0.9023091,11.05189,17.0563,-30.96177,990.0363
2.271776676,-0.2223663,-0.04482286,0.1654013,-0.4140904,-0.08591698,0.897797,11.05189,17.0563,-30.96177,990.0363
2.276693821,0.024921,-0.04481326,0.04349967,-0.4101491,-0.08352611,0.9022111,11.05189,17.0563,-30.96177,990.0363
2.281611443,0.08676507,-0.1631953,-0.01744564,-0.4106407,-0.08641877,0.9001803,11.05661,17.04354,-30.57869,990.0363
2.286528587,0.148512,-0.1038597,0.04348334,-0.4082822,-0.08092621,0.8945106,11.05661,17.04354,-30.57869,990.0363
2.291445732,-0.1604916,-0.04459865,0.04339858,-0.4101849,-0.08297521,0.8988304,11.05661,17.04354,-30.57869,990.0363
2.296362877,0.08681512,-0.04458927,0.2262019,-0.4121436,-0.08588114,0.8968111,11.05661,17.04354,-30.57869,990.0355
2.301280499,0.02495909,-0.04456124,0.04328664,-0.408188,-0.08689313,0.9006305,11.05661,17.04354,-30.57869,990.0355
2.306197643,0.0867643,-0.04455186,0.04322116,-0.4106903,-0.08005513,0.8989281,11.05661,17.04354,-30.57869,990.0355
2.311114311,0.02492773,0.07403517,-0.01770485,-0.4111643,-0.08442818,0.8978207,11.05661,17.04354,-30.57869,990.0355
2.316031456,0.08669414,-0.1629062,0.04324339,-0.4111432,-0.08736175,0.898212,11.05661,17.04354,-30.57869,990.0355
2.320949078,0.2102426,0.07407247,0.1041342,-0.407708,-0.08108504,0.9032404,11.05661,17.04354,-30.57869,990.0355
2.328324795,0.08657746,0.01482557,-0.07875616,-0.4120931,-0.08404937,0.9031814,11.05189,17.0563,-30.96177,990.0355
2.333241940,-0.03706042,-0.04437963,-0.07870669,-0.4072915,-0.08817421,0.8913569,11.05189,17.0563,-30.96177,990.0355
2.338159561,0.0247643,0.01489993,-0.07859981,-0.4101715,-0.08203666,0.9008024,11.05189,17.0563,-30.96177,990.0361
2.343076706,0.1482935,0.07406772,-0.1394684,-0.4096875,-0.08780868,0.8967291,11.05189,17.0563,-30.96177,990.0361
2.347993851,-0.1607488,-0.1036221,0.1043486,-0.4106508,-0.08543485,0.8997264,11.05189,17.0563,-30.96177,990.0361
2.352910996,-0.03708366,-0.1035942,-0.1393698,-0.4121544,-0.08730712,0.8948234,11.05189,17.0563,-30.96177,990.0361
2.357828617,-0.03706031,0.01493689,0.1653652,-0.4086945,-0.0887928,0.8976605,11.05189,17.0563,-30.96177,990.0361
2.362745762,-0.09885791,-0.04424966,0.04344444,-0.4097135,-0.0814904,0.897903,11.05189,17.0563,-30.96177,990.0361
2.367662907,-0.09877637,-0.1034177,-0.1393751,-0.4071991,-0.08545829,0.9026105,11.05189,17.0563,-30.96177,990.0361
2.372580528,-0.03695165,-0.1034085,-0.2001864,-0.4102086,-0.08292986,0.8964043,11.05189,17.0563,-30.96177,990.0361
2.377499580,-0.09871052,0.0151411,-0.2610361,-0.4048337,-0.08287211,0.8958765,11.42575,17.05313,-30.96097,990.0328
2.382414818,-0.1604888,-0.2810336,0.1046933,-0.4165217,-0.08259067,0.9013224,11.42575,17.05313,-30.96097,990.0328
2.387332440,-0.2222089,-0.1623538,-0.07818393,-0.4091919,-0.08395933,0.8997617,11.42575,17.05313,-30.96097,990.0328
2.394708157,0.08691075,0.07460103,-0.1390091,-0.4051758,-0.08990899,0.906821,11.42575,17.05313,-30.96097,990.0328
2.399625301,0.08687555,0.1338244,-0.07802293,-0.4097235,-0.08388213,0.8953987,11.42575,17.05313,-30.96097,990.0328
2.404548645,-0.03676258,-0.2216392,-0.199829,-0.409189,-0.08782239,0.8976957,11.42575,17.05313,-30.96097,990.0328
2.409460068,-0.09854096,-0.1623042,-0.1997418,-0.4106448,-0.08399981,0.901229,11.42575,17.05313,-30.96097,990.0328
2.414377213,-0.1602417,0.1931773,0.04409396,-0.4096593,-0.08448745,0.9016907,11.42575,17.05313,-30.96097,990.0328
2.419294357,-0.03659632,-0.04387615,-0.01689001,-0.4096919,-0.0820141,0.8998282,11.42575,17.05313,-30.96097,990.0355
2.424211979,-0.03659272,-0.04384858,-0.01686027,-0.4072492,-0.08488019,0.8977741,11.42575,17.05313,-30.96097,990.0355
2.429129124,-0.09835182,-0.043821,0.04408745,-0.4111494,-0.08542114,0.8987598,11.42575,17.05313,-30.96097,990.0355
2.434046269,0.02529349,-0.2806883,-0.1386751,-0.4077282,-0.08249288,0.9002823,11.42575,17.05313,-30.96097,990.0355
2.438963890,-0.03648506,-0.1028315,-0.07765083,-0.4116884,-0.08484746,0.8939273,11.42575,17.05313,-30.96097,990.0355
2.443881035,-0.03648159,-0.1619999,-0.01666492,-0.4067785,-0.08242961,0.8973633,11.42575,17.05313,-30.96097,990.0355
2.448798180,-0.03645871,-0.1026652,-0.01667361,-0.4131841,-0.08143067,0.893078,11.42575,17.05313,-30.96097,990.0355
2.456174374,-0.09824523,-0.04337256,-0.07757589,-0.4047514,-0.08254795,0.9046259,11.42575,17.05313,-30.96097,990.0381
2.461091519,-0.03645971,0.01588778,-0.01653258,-0.4126354,-0.08539815,0.8968306,11.42575,17.05313,-30.96097,990.0381
2.466008663,-0.09819948,-0.1617654,0.04443412,-0.408715,-0.08344935,0.8988031,11.42575,17.05313,-30.96097,990.0381
2.470926285,-0.03635572,0.01597955,-0.2602412,-0.4057876,-0.08051643,0.8998442,11.42575,17.05313,-30.96097,990.0381
2.475843430,-0.09815378,0.07522114,-0.01638661,-0.4106615,-0.08686084,0.8977386,11.42575,17.05313,-30.96097,990.0381
2.480760574,-0.1598936,-0.1024322,-0.0772943,-0.4106374,-0.0844963,0.9016985,11.43607,16.30708,-30.60035,990.0381
2.485678196,-0.2215946,-0.1023678,-0.01630862,-0.406727,-0.08493924,0.9011667,11.43607,16.30708,-30.60035,990.0381
2.490595341,-0.03614807,0.01618117,0.04463875,-0.4082205,-0.08441976,0.8987679,11.43607,16.30708,-30.60035,990.0381
2.495512486,0.1492596,0.1346557,0.04457242,-0.4135899,-0.08545234,0.8992644,11.43607,16.30708,-30.60035,990.0381
2.500429630,-0.03619977,-0.1615755,-0.07732987,-0.4106498,-0.0806151,0.9027941,11.43607,16.30708,-30.60035,990.0374
2.505347252,-0.1597605,-0.04302651,-0.0163633,-0.4092242,-0.08486161,0.8958488,11.43607,16.30708,-30.60035,990.0374
2.510264397,0.02572482,-0.22068,-0.01635301,-0.4122088,-0.08093441,0.893086,11.43607,16.30708,-30.60035,990.0374
2.515181542,-0.09787486,-0.1020753,-0.01634272,-0.4120929,-0.08742502,0.901131,11.43607,16.30708,-30.60035,990.0374
2.520099163,0.02575077,-0.04277811,-0.07725047,-0.4141269,-0.08440031,0.8949327,11.43607,16.30708,-30.60035,990.0374
2.527474880,-0.097857,0.25339,-0.199052,-0.4092048,-0.08248802,0.8993235,11.43046,17.04037,-30.57788,990.0374
2.532392025,-0.0978926,0.07562482,-0.1380281,-0.4120904,-0.08453679,0.9031658,11.43046,17.04037,-30.57788,990.0374
2.537309647,-0.2214147,0.01634436,-0.07702334,-0.4087476,-0.08097599,0.8969405,11.43046,17.04037,-30.57788,990.0384
2.542226792,0.02591089,0.07556719,0.1058365,-0.4086372,-0.08649176,0.9050168,11.43046,17.04037,-30.57788,990.0384
2.547143936,0.02593347,-0.1021049,-0.07707977,-0.4072424,-0.08441091,0.8987602,11.43046,17.04037,-30.57788,990.0384
2.552061558,0.02595605,-0.1612738,-0.07705049,-0.4101887,-0.08730755,0.8957782,11.43046,17.04037,-30.57788,990.0384
2.556978703,0.08774122,0.016508,0.1057519,-0.4116681,-0.08681528,0.8948351,11.43046,17.04037,-30.57788,990.0384
2.561895371,-0.0359169,-0.04266092,-0.01613138,-0.4101894,-0.08634178,0.8962948,11.43046,17.04037,-30.57788,990.0384
2.566812515,-0.1594585,-0.3388365,-0.1989135,-0.4091797,-0.08446489,0.9007164,11.43046,17.04037,-30.57788,990.0384
2.571729660,-0.2211986,-0.04251434,0.1058397,-0.4087325,-0.0853446,0.8958292,11.43046,17.04037,-30.57788,990.0384
2.576647282,0.02612685,-0.04245037,-0.07699989,-0.4097235,-0.08388213,0.8953987,10.67803,17.05946,-30.96258,990.0394
2.581564427,-0.159294,-0.04246088,0.04494191,-0.4087096,-0.08442418,0.8987718,10.67803,17.05946,-30.96258,990.0394
2.586481571,-0.03562978,0.07603189,-0.01602348,-0.4087074,-0.08732148,0.8972223,10.67803,17.05946,-30.96258,990.0394
2.591399193,0.02621346,0.3129163,-0.01599427,-0.412607,-0.08545256,0.8997419,10.67803,17.05946,-30.96258,990.0394
2.596316338,-0.1591686,-0.04260407,0.04493377,-0.4101847,-0.08635086,0.89678,10.67803,17.05946,-30.96258,990.0394
2.603692055,-0.03547395,0.1943682,0.04487229,-0.4126476,-0.08489259,0.8958759,10.67803,17.05946,-30.96258,990.0394
2.608609677,-0.1590935,-0.04261164,0.1057812,-0.4111628,-0.08635971,0.8967877,10.67803,17.05946,-30.96258,990.0394
2.613526821,-0.03542938,0.0758626,-0.01614033,-0.4092372,-0.08339029,0.8954105,10.67803,17.05946,-30.96258,990.0394
2.618443966,0.02641374,-0.1018469,-0.01616847,-0.4160289,-0.08741508,0.8987359,10.67803,17.05946,-30.96258,990.0377
2.623361111,0.08821806,-0.1018388,-0.01615829,-0.4096524,-0.08739382,0.9006264,10.67803,17.05946,-30.96258,990.0377
2.628278732,0.1499447,-0.04259763,0.04482727,-0.4053026,-0.08146871,0.8988386,11.06221,16.31025,-30.60116,990.0377
2.647947788,-0.3444944,-0.04245365,0.1056519,-0.4077138,-0.08589573,0.8996875,11.06221,16.31025,-30.60116,990.0377
2.652864933,0.1500755,-0.1016786,-0.0771876,-0.4096329,-0.08502021,0.9041011,11.06221,16.31025,-30.60116,990.0377
2.657782555,0.02645595,-0.04240031,-0.07713912,-0.4093009,-0.08037509,0.8906524,11.06221,16.31025,-30.60116,990.0403
2.665158272,-0.2207554,0.01689134,-0.1989407,-0.4062237,-0.08496203,0.9026184,11.06221,16.31025,-30.60116,990.0403
2.670075417,-0.09703325,-0.2200514,-0.01608086,-0.4092046,-0.08586366,0.8972731,11.06221,16.31025,-30.60116,990.0403
2.674993038,0.08847093,-0.04226978,-0.07702704,-0.40971,-0.08294357,0.8973709,11.05941,16.67689,-30.58992,990.0403
2.679910183,-0.0351682,-0.1014762,0.1058136,-0.4077335,-0.08489368,0.8982632,11.05941,16.67689,-30.58992,990.0403
2.684827328,-0.03514615,0.01705363,-0.07700681,-0.4081954,-0.08639664,0.9001609,11.05941,16.67689,-30.58992,990.0403
2.689744473,0.02663854,0.07633183,0.1667327,-0.4126464,-0.08344848,0.8968932,11.05941,16.67689,-30.58992,990.0403
2.694662094,-0.09696174,-0.04216354,-0.1380003,-0.4100869,-0.08460978,0.9080023,11.05941,16.67689,-30.58992,990.0403
2.699579239,-0.09692023,-0.1605659,-0.07699565,-0.4101971,-0.08246966,0.8978756,11.05941,16.67689,-30.58992,990.0414
2.704496384,0.02674354,-0.04198035,-0.1379036,-0.4106685,-0.08395447,0.8988029,11.05941,16.67689,-30.58992,990.0414
2.709414005,-0.09683739,-0.219653,-0.07693722,-0.4072471,-0.08440184,0.898275,11.05941,16.67689,-30.58992,990.0414
2.714331150,0.02680698,0.0173799,-0.01593262,-0.4116399,-0.08349404,0.8997967,11.05941,16.67689,-30.58992,990.0414
2.719248295,0.02682897,-0.1603115,-0.1378352,-0.4086698,-0.08401839,0.9031543,11.05941,16.67689,-30.58992,990.0414
2.726624489,-0.03493956,-0.04178755,-0.07678733,-0.4155341,-0.08259996,0.902285,11.05189,17.0563,-30.96177,990.0414
2.731541634,0.0886853,-0.2194418,-0.07671995,-0.4096573,-0.0840091,0.9021916,11.05189,17.0563,-30.96177,990.0414
2.736458779,-0.0966972,0.01760954,-0.07667176,-0.4111541,-0.08541208,0.8982746,11.05189,17.0563,-30.96177,990.042
2.741376400,0.08874855,0.0176543,-0.01574389,-0.4077091,-0.0859048,0.9001727,11.05189,17.0563,-30.96177,990.042
2.746293545,-0.0348713,-0.1599814,-0.1375891,-0.409622,-0.08696989,0.9040385,11.05189,17.0563,-30.96177,990.042
2.751210689,0.02693262,-0.04148931,-0.1984399,-0.4155554,-0.08882755,0.8962591,11.05189,17.0563,-30.96177,990.042
2.756128311,-0.09666783,-0.04146331,-0.1373972,-0.4146115,-0.08103816,0.8974722,11.05189,17.0563,-30.96177,990.042
2.761047363,-0.09662651,0.01775861,-0.07641202,-0.4116424,-0.08638227,0.897762,11.05189,17.0563,-30.96177,990.042
2.765962601,0.08879979,-0.1006627,0.1064091,-0.4097021,-0.08103018,0.8993742,11.05189,17.0563,-30.96177,990.042
2.770879745,-0.03480072,0.01784789,0.04544345,-0.4100745,-0.08849099,0.9069067,11.05189,17.0563,-30.96177,990.042
2.775797367,0.02698379,0.07708835,-0.1374157,-0.4077809,-0.08142734,0.8954615,11.43136,16.31984,-30.98344,990.042
2.780714512,0.02702506,-0.0413703,-0.07641136,-0.4115768,-0.08891913,0.903021,11.43136,16.31984,-30.98344,990.0386
2.785631657,0.02700808,-0.04134431,0.04543437,-0.4082001,-0.08638757,0.8996757,11.43136,16.31984,-30.98344,990.0386
2.790549278,0.0269911,0.01795186,-0.07639188,-0.4106334,-0.08353961,0.9027002,11.43136,16.31984,-30.98344,990.0386
2.797924995,0.02692678,0.01802792,-0.07633904,-0.4077024,-0.08543551,0.9011588,11.43136,16.31984,-30.98344,990.0386
2.802842140,-0.09667367,-0.1004123,-0.1372282,-0.4122006,-0.08239667,0.893039,11.43136,16.31984,-30.98344,990.0386
2.807759762,0.02697059,-0.3372627,0.1065874,-0.412158,-0.08247829,0.8974059,11.43136,16.31984,-30.98344,990.0386
2.812676907,-0.03482837,-0.1594635,0.04562162,-0.4077247,-0.08394605,0.8997501,11.43136,16.31984,-30.98344,990.0386
2.817594051,-0.1584482,-0.159326,0.1674864,-0.4077046,-0.08253822,0.9027083,11.43136,16.31984,-30.98344,990.0396
2.822511673,-0.03476517,0.07768754,-0.1372663,-0.4097491,-0.08431513,0.8924718,11.43136,16.31984,-30.98344,990.0396
2.827428818,0.08878198,-0.2184705,-0.01534403,-0.4086957,-0.09023692,0.8966432,11.04628,17.78958,-30.9393,990.0396
2.832345962,0.02694411,-0.04065278,0.04556445,-0.4112048,-0.0838682,0.8939548,11.04628,17.78958,-30.9393,990.0396
2.837267399,-0.03485484,0.01858711,-0.137199,-0.4106326,-0.08450537,0.9021837,11.04628,17.78958,-30.9393,990.0396
2.844639301,-0.1583861,-0.1590738,-0.01527206,-0.4107043,-0.08340356,0.8954221,11.04628,17.78958,-30.9393,990.0396
2.849556446,-0.03470309,-0.04050778,-0.01524332,-0.4086857,-0.08784518,0.8991474,11.04628,17.78958,-30.9393,990.0396
2.854473591,-0.1582648,-0.09969682,-0.2589823,-0.4135461,-0.08408986,0.9046487,11.04628,17.78958,-30.9393,990.0396
2.859391212,-0.1581459,0.01877607,-0.1979782,-0.4102211,-0.08820983,0.8918653,11.04628,17.78958,-30.9393,990.0406
2.864308357,0.089101,-0.3957554,-0.01502326,-0.3988467,-0.0647234,0.9192294,11.04628,17.78958,-30.9393,990.0406
2.869225025,-0.2817056,0.1966375,-0.01501384,-0.4224256,-0.101381,0.8862023,11.04628,17.78958,-30.9393,990.0406
2.874142170,0.151004,0.1372995,-0.1977967,-0.4077142,-0.09168126,0.8961033,11.42305,16.70136,-31.41914,990.0406
2.879060268,0.08903001,0.0187286,-0.07581727,-0.4156237,-0.07664211,0.8966504,11.42305,16.70136,-31.41914,990.0406
2.883977413,-0.03455122,-0.09965625,0.04610464,-0.4076741,-0.0946511,0.8984354,11.42305,16.70136,-31.41914,990.0406
2.888894081,0.02723312,0.1372826,-0.07572202,-0.4097244,-0.07954073,0.8979656,11.42305,16.70136,-31.41914,990.0406
2.893811226,-0.1582078,-0.1589315,0.107137,-0.4092028,-0.08200967,0.8998243,11.42305,16.70136,-31.41914,990.0406
2.898728847,-0.03450552,0.01884885,-0.01474719,-0.4091193,-0.08940256,0.9039564,11.42305,16.70136,-31.41914,990.0398
2.903645992,0.02731761,-0.04039601,-0.01469963,-0.4102242,-0.08097112,0.8959817,11.42305,16.70136,-31.41914,990.0398
2.911022186,-0.03443195,0.01885653,0.04621306,-0.408659,-0.08259243,0.905142,11.42305,16.70136,-31.41914,990.0398
2.915939331,-0.09621181,0.1372921,0.04618405,-0.4072011,-0.08593665,0.9021096,11.42305,16.70136,-31.41914,990.0398
2.920856476,0.08923359,-0.1589407,-0.01476294,-0.41462,-0.08536143,0.8939349,11.42305,16.70136,-31.41914,990.0398
2.925773621,-0.1579895,0.1965016,0.0461835,-0.4052502,-0.08831976,0.9000751,10.67803,17.05946,-30.96258,990.0398
2.930691242,0.08925735,0.01873493,0.1070725,-0.4102289,-0.08096205,0.8954965,10.67803,17.05946,-30.96258,990.0398
2.935608387,0.02741925,0.01872318,-0.01483081,-0.4081693,-0.08355376,0.9046217,10.67803,17.05946,-30.96258,990.0398
2.940525532,0.08924232,-0.1590063,-0.1366766,-0.4126329,-0.08250993,0.8988653,10.67803,17.05946,-30.96258,990.0409
2.945443153,0.1509877,-0.09969207,0.1071195,-0.4052922,-0.08582826,0.8972421,10.67803,17.05946,-30.96258,990.0409
2.965114117,0.08913697,0.1372672,-0.01475585,-0.4067255,-0.08687078,0.9001337,10.67803,17.05946,-30.96258,990.0409
2.970029354,-0.158086,-0.1588912,-0.07572199,-0.4081951,-0.08061112,0.9037451,10.67803,17.05946,-30.96258,990.0409
2.974946499,0.02739826,-0.04034391,-0.0147564,-0.4072391,-0.08248845,0.9002784,11.42216,17.4219,-31.01358,990.0409
2.982322693,0.08917393,-0.04028729,-0.2584719,-0.4076989,-0.0868887,0.9006266,11.42216,17.4219,-31.01358,990.0392
2.987239838,-0.1580297,-0.04024333,-0.07551728,-0.4077235,-0.08250195,0.9007674,11.42216,17.4219,-31.01358,990.0392
2.992156982,0.02747396,-0.2179171,-0.07554641,-0.4087382,-0.08099413,0.8979109,11.42216,17.4219,-31.01358,990.0392
2.997074604,0.02743729,0.01909612,-0.01461924,-0.4091986,-0.08442861,0.8987756,11.42216,17.4219,-31.01358,990.0392
3.001991749,-0.219747,0.07827985,-0.01457174,-0.4062623,-0.0839237,0.8992532,11.42216,17.4219,-31.01358,990.0392
3.006908894,-0.03424334,-0.1586642,-0.07546144,-0.4072726,-0.08821049,0.8932977,11.42216,17.4219,-31.01358,990.0392
3.011826515,-0.09602332,-0.1585832,-0.01449602,-0.4072703,-0.08194662,0.8973828,11.42216,17.4219,-31.01358,990.0392
3.016743660,0.02758167,0.1376071,0.1073682,-0.4082043,-0.08396862,0.9007244,11.42216,17.4219,-31.01358,990.0392
3.021660805,-0.1578012,-0.09933709,-0.07545321,-0.4096566,-0.08497487,0.9016751,11.42216,17.4219,-31.01358,990.0402
3.026578426,-0.03409914,0.01922869,0.04643019,-0.4097426,-0.08047021,0.8955083,11.42575,17.05313,-30.96097,990.0402
3.031495571,-0.2194821,-0.09926804,-0.07543496,-0.4102153,-0.08339914,0.8954182,11.42575,17.05313,-30.96097,990.0402
3.036412716,0.02780341,0.1377078,0.107443,-0.4092277,-0.08340843,0.896381,11.42575,17.05313,-30.96097,990.0402
3.041329861,-0.1575991,-0.09925505,-0.1363348,-0.4096518,-0.08498394,0.9021603,11.42575,17.05313,-30.96097,990.0402
3.048706055,-0.09568791,-0.09916147,0.0465668,-0.4091869,-0.08734405,0.8981965,11.42575,17.05313,-30.96097,990.0402
3.053623199,0.0897378,-0.03984756,-0.01438046,-0.4091973,-0.08298449,0.899793,11.42575,17.05313,-30.96097,990.0402
3.058540344,0.08970083,-0.1583259,-0.07530858,-0.4077434,-0.08728542,0.8957589,11.42575,17.05313,-30.96097,990.0384
3.063457966,-0.03391961,-0.03979749,-0.01432413,-0.40819,-0.08737148,0.9001296,11.42575,17.05313,-30.96097,990.0384
3.068375111,0.1515061,0.0787866,-0.1361703,-0.4082837,-0.07899468,0.8955436,11.42575,17.05313,-30.96097,990.0384
3.073292255,-0.1575576,-0.1581578,0.04665013,-0.4082105,-0.08202803,0.9012722,10.68275,17.04671,-30.57949,990.0384
3.078209877,-0.03391389,0.07879926,-0.01427806,-0.411127,-0.08691061,0.9001685,10.68275,17.04671,-30.57949,990.0384
3.083127022,-0.1575149,-0.0989307,-0.01424995,-0.4121578,-0.08585393,0.8953555,10.68275,17.04671,-30.57949,990.0384
3.088044167,-0.03383247,-0.09884989,-0.1360961,-0.4097001,-0.08055183,0.8998752,10.68275,17.04671,-30.57949,990.0384
3.092961788,-0.2191768,-0.157965,-0.07511181,-0.4052902,-0.0853499,0.897743,10.68275,17.04671,-30.57949,990.0384
3.097878933,-0.2190585,0.01979613,-0.01414662,-0.413611,-0.08251877,0.8988731,10.68275,17.04671,-30.57949,990.0378
3.102796078,0.0899893,0.0197837,-0.1968917,-0.4081981,-0.08590923,0.9001766,10.68275,17.04671,-30.57949,990.0378
3.110172272,0.08992392,0.01980223,-0.01389482,-0.4082285,-0.08633316,0.8967645,10.68275,17.04671,-30.57949,990.0378
3.115089417,0.0281048,-0.2762823,0.04703191,-0.4130792,-0.08597162,0.9011857,10.68275,17.04671,-30.57949,990.0378
3.120006561,0.02808711,0.07923368,0.04702154,-0.4101611,-0.0863962,0.899206,10.68275,17.04671,-30.57949,990.0378
3.124924183,0.1516724,0.1384541,0.04697285,-0.4140742,-0.08546583,0.8997535,10.68275,17.04671,-30.57949,990.0378
3.129841328,0.1515577,-0.1577607,-0.07489265,-0.409183,-0.08638735,0.8991982,10.68275,17.04671,-30.57949,990.0378
3.134758472,0.02789833,0.01996305,0.04699041,-0.4082447,-0.0867843,0.8948081,10.68275,17.04671,-30.57949,990.0378
3.139675617,-0.2810877,0.02000633,-0.01393795,-0.4082437,-0.08196454,0.8978757,10.68275,17.04671,-30.57949,990.0445
3.144595623,-0.2191485,0.07926408,0.1688822,-0.4072688,-0.08387814,0.8963498,10.68275,17.04671,-30.57949,990.0445
3.149510384,-0.03368408,0.01998125,0.046921,-0.4077551,-0.08436999,0.896338,10.68275,17.04671,-30.57949,990.0445
3.154427528,0.02813852,-0.03926441,0.04689152,-0.4120591,-0.08845427,0.904011,10.68275,17.04671,-30.57949,990.0445
3.159345150,-0.1572642,-0.03922112,-0.07505053,-0.4096762,-0.08397283,0.9002508,10.68275,17.04671,-30.57949,990.0445
3.166720867,-0.0336684,0.019993,0.107755,-0.4106623,-0.08589508,0.8982551,10.68275,17.04671,-30.57949,990.0445
3.171638012,-0.09542926,-0.03925265,-0.07504751,-0.4140749,-0.08450007,0.90027,11.42855,16.68648,-30.9722,990.0445
3.176555634,0.02819483,-0.0392652,0.1077919,-0.4082123,-0.08588202,0.898721,11.42855,16.68648,-30.9722,990.0445
3.181472778,-0.095387,-0.09843627,-0.07510637,-0.4082218,-0.08586387,0.8977506,11.42855,16.68648,-30.9722,990.0411
3.186389923,-0.09532709,0.07928748,-0.01416034,-0.4110284,-0.08613531,0.9108744,11.42855,16.68648,-30.9722,990.0411
3.191307545,-0.03350455,-0.1576759,0.1686408,-0.4082745,-0.08479834,0.8929298,11.42855,16.68648,-30.9722,990.0411
3.196224690,-0.03344471,0.07929935,0.04666062,-0.4097158,-0.08775426,0.8938179,11.42855,16.68648,-30.9722,990.0411
3.201141834,-0.03342372,-0.03921649,-0.1361227,-0.4135906,-0.08448657,0.8997809,11.42855,16.68648,-30.9722,990.0411
3.206058979,0.02837936,0.2569362,0.04673599,-0.4106812,-0.08585879,0.8963143,11.42855,16.68648,-30.9722,990.0411
3.210976601,-0.157004,-0.03931594,-0.0751868,-0.4101978,-0.08150389,0.8983921,11.42855,16.68648,-30.9722,990.0411
3.215893745,0.02847959,-0.09850565,-0.0141833,-0.4101787,-0.08491581,0.8982825,11.42855,16.68648,-30.9722,990.0411
3.220810890,0.09028262,-0.09848101,-0.07511155,-0.4106095,-0.08696061,0.9030759,11.43057,16.32196,-31.04729,990.0421
3.225728512,0.02842441,-0.157615,0.1076705,-0.4067203,-0.08446997,0.9021527,11.43057,16.32196,-31.04729,990.0421
3.233104229,-0.09518589,-0.1575223,-0.01420952,-0.4057581,-0.08828791,0.8981381,11.43057,16.32196,-31.04729,990.0421
3.238020897,-0.03332462,-0.09819034,-0.07515686,-0.4091926,-0.08299357,0.9002782,11.43057,16.32196,-31.04729,990.0421
3.242938042,-0.1569066,-0.09809146,0.1076826,-0.4125907,-0.08837707,0.899648,11.43057,16.32196,-31.04729,990.0421
3.247856140,-0.09498715,-0.03877822,0.04669698,-0.4121504,-0.08635042,0.895825,11.43057,16.32196,-31.04729,990.0421
3.252773285,-0.03314539,-0.1571827,-0.01430776,-0.4130324,-0.08847219,0.9045039,11.43057,16.32196,-31.04729,990.0421
3.257689953,0.09047841,-0.03867369,0.04661923,-0.4106817,-0.08826867,0.8947805,11.43057,16.32196,-31.04729,990.0421
3.262609482,-0.0949246,-0.09788238,-0.07532265,-0.4092257,-0.08293008,0.8968818,11.43057,16.32196,-31.04729,990.0431
3.267524719,0.02867975,0.02066385,-0.0143765,-0.4091961,-0.08154038,0.9008104,11.43057,16.32196,-31.04729,990.0431
3.272441864,-0.2803456,-0.09781514,-0.1362035,-0.4140829,-0.08641347,0.8982666,11.04919,16.70453,-31.41995,990.0431
3.277359009,0.1523631,-0.03852066,-0.1361562,-0.4116921,-0.08001864,0.8965098,11.04919,16.70453,-31.41995,990.0431
3.282276630,-0.09491906,-0.09776666,-0.01423466,-0.4111327,-0.08256014,0.9022501,11.04919,16.70453,-31.41995,990.0431
3.287193775,-0.09487884,-0.2161713,-0.07516284,-0.4111566,-0.0883003,0.8962399,11.04919,16.70453,-31.41995,990.0431
3.294569492,-0.09480886,-0.2753122,0.107662,-0.4082305,-0.0868115,0.8962637,11.04919,16.70453,-31.41995,990.0431
3.299487114,-0.09472986,0.08024041,-0.07519793,-0.4091678,-0.09075598,0.898087,11.04919,16.70453,-31.41995,990.0441
3.304404259,0.02891316,-0.03822028,0.1076799,-0.4096631,-0.08881979,0.8986387,11.04919,16.70453,-31.41995,990.0441
3.309321404,0.028895,0.08021396,-0.197016,-0.4091608,-0.08450116,0.9026573,11.04919,16.70453,-31.41995,990.0441
3.314239025,-0.03290525,-0.09744243,-0.1360125,-0.4086799,-0.08303449,0.9027004,11.04919,16.70453,-31.41995,990.0441
3.319156170,-0.03286516,-0.03818547,-0.1359462,-0.4083044,-0.0828124,0.8910516,11.04919,16.70453,-31.41995,990.0441
3.324073315,0.09068076,0.1395376,-0.07492369,-0.4071912,-0.08354491,0.904614,11.43327,16.67372,-30.58912,990.0441
3.328990460,-0.03292094,-0.03823056,-0.01399693,-0.4067384,-0.08539945,0.8996954,11.43327,16.67372,-30.58912,990.0441
3.333908081,-0.09470174,-0.0974023,0.1079244,-0.4116035,-0.08163507,0.9047114,11.43327,16.67372,-30.58912,990.0441
3.338829994,-0.03291846,-0.09735969,-0.1968291,-0.4062772,-0.08293074,0.8983141,11.43327,16.67372,-30.58912,990.045
3.343742371,-0.0946798,0.0803819,-0.1358448,-0.4087128,-0.08634665,0.8972536,11.43327,16.67372,-30.58912,990.045
3.348659992,0.0907841,-0.03811608,-0.07482237,-0.4072864,-0.08239776,0.8954263,11.43327,16.67372,-30.58912,990.045
3.353581905,0.09078534,-0.156521,-0.0748328,-0.4087524,-0.08096692,0.8964553,11.43327,16.67372,-30.58912,990.045
3.360952854,-0.09466577,-0.09721504,0.1080109,-0.4086792,-0.08400025,0.9021838,11.43327,16.67372,-30.58912,990.045
3.365870476,0.09081753,-0.1564055,-0.01383555,-0.4106894,-0.08439654,0.8963612,11.43327,16.67372,-30.58912,990.045
3.370787621,-0.09460511,-0.09711152,0.2298834,-0.4107056,-0.08484767,0.8944048,11.42855,16.68648,-30.9722,990.045
3.375704765,0.02903785,-0.03779885,0.04698503,-0.4111894,-0.0824513,0.8964277,11.42855,16.68648,-30.9722,990.045
3.380622387,-0.09448625,-0.03775647,0.04697465,-0.4106779,-0.08393633,0.8978325,11.42855,16.68648,-30.9722,990.0444
3.385539532,0.02913726,-0.09696573,-0.07491,-0.4106098,-0.08358496,0.9051262,11.42855,16.68648,-30.9722,990.0444
3.390456677,0.1527025,0.02154264,0.1079102,-0.4077307,-0.0853811,0.8982475,11.42855,16.68648,-30.9722,990.0444
3.395374298,0.09082449,0.08074343,0.1078807,-0.4077091,-0.0859048,0.9001727,11.42855,16.68648,-30.9722,990.0444
3.400291443,-0.03281611,0.08071133,-0.2577716,-0.4106436,-0.08255571,0.9022463,11.42855,16.68648,-30.9722,990.0444
3.405208588,0.2143909,0.1398937,-0.01393769,-0.4097128,-0.08245616,0.8973866,11.42855,16.68648,-30.9722,990.0444
3.410125733,-0.1565526,-0.03787468,-0.07492352,-0.4136677,-0.08240993,0.8930506,11.42855,16.68648,-30.9722,990.0444
3.415043354,0.09071276,0.08061516,0.107935,-0.4121742,-0.08292942,0.8954494,11.42855,16.68648,-30.9722,990.0444
3.422419071,-0.09469943,0.02130622,-0.07492072,-0.410182,-0.08683828,0.8967643,11.42575,17.05313,-30.96097,990.0453
3.427336216,-0.2182235,0.1397774,-0.07491194,-0.4091809,-0.08590901,0.8996992,11.42575,17.05313,-30.96097,990.0453
3.432253838,0.02910005,0.02122349,0.04699026,-0.4126742,-0.08098418,0.8955159,11.42575,17.05313,-30.96097,990.0453
3.437170982,-0.0944823,0.1396763,-0.257725,-0.4048521,-0.08042596,0.8954695,11.42575,17.05313,-30.96097,990.0453
3.442088127,-0.09446172,-0.09730636,0.2908329,-0.4111432,-0.08736175,0.898212,11.42575,17.05313,-30.96097,990.0453
3.447005749,-0.03260092,0.0804166,-0.01399722,-0.4053116,-0.07904068,0.899402,11.42575,17.05313,-30.96097,990.0453
3.451922894,0.09102253,-0.09733303,-0.01396929,-0.4086805,-0.08544436,0.9011665,11.42575,17.05313,-30.96097,990.0453
3.456840038,-0.2180032,0.1395859,-0.01388395,-0.4116153,-0.08788081,0.8996559,11.42575,17.05313,-30.96097,990.0453
3.461757660,0.09110229,-0.0381823,-0.07481237,-0.4082069,-0.08685685,0.8986897,11.42575,17.05313,-30.96097,990.0464
3.466674805,-0.09435932,0.02103758,-0.1966971,-0.4082369,-0.08149526,0.8988618,11.42575,17.05313,-30.96097,990.0464
3.471591950,-0.03251803,-0.1566561,0.1080739,-0.4081367,-0.08602713,0.9064842,10.67533,16.7077,-31.42076,990.0464
3.478968144,-0.09432772,-0.03806104,-0.07474365,-0.4136297,-0.08585814,0.8948819,10.67533,16.7077,-31.42076,990.0464
3.483885288,-0.09428786,-0.2156804,-0.1356338,-0.4129884,-0.09048535,0.9078377,10.67533,16.7077,-31.42076,990.0464
3.488802433,-0.03246597,-0.03790169,0.1691179,-0.4072919,-0.08142292,0.8954576,10.67533,16.7077,-31.42076,990.0464
3.493719578,-0.03244557,-0.09712949,-0.1965729,-0.4125949,-0.08595812,0.9006966,10.67533,16.7077,-31.42076,990.0464
3.498637200,-0.09424612,0.139845,-0.1355314,-0.4067496,-0.08007415,0.9018084,10.67533,16.7077,-31.42076,990.0464
3.503554344,-0.03242429,-0.03788621,-0.1354845,-0.4111588,-0.08540301,0.8977894,10.67533,16.7077,-31.42076,990.043
3.508471489,-0.09420538,0.02133345,0.04731627,-0.4106732,-0.0839454,0.8983177,10.67533,16.7077,-31.42076,990.043
3.513389111,-0.03236409,-0.2747893,-0.07454946,-0.4082377,-0.08052949,0.8993783,10.67533,16.7077,-31.42076,990.043
3.518306255,-0.03234381,0.1399401,-0.01356547,-0.4096991,-0.08489324,0.8973083,11.05189,17.0563,-30.96177,990.043
3.523223400,-0.09414436,-0.2155273,0.1083365,-0.4106754,-0.0810481,0.8998672,11.05189,17.0563,-30.96177,990.043
3.528143406,-0.2176299,0.08069879,-0.07446644,-0.4082096,-0.08636943,0.8987053,11.05189,17.0563,-30.96177,990.043
3.535516739,0.1532869,-0.03765713,-0.07439628,-0.4126155,-0.08061467,0.9018392,11.05189,17.0563,-30.96177,990.043
3.540433884,-0.03215562,-0.0376334,0.04754389,-0.4067919,-0.08336816,0.8953912,11.05189,17.0563,-30.96177,990.0419
3.545351505,0.09142874,0.08081903,-0.1353166,-0.4131078,-0.08254156,0.9003248,11.05189,17.0563,-30.96177,990.0419
3.550268650,-0.1558151,-0.03767917,-0.07431356,-0.411606,-0.08452329,0.9026766,11.05189,17.0563,-30.96177,990.0419
3.555185795,-0.1556784,-0.2153918,-0.07424773,-0.4101543,-0.08592693,0.9001921,11.05189,17.0563,-30.96177,990.0419
3.560103417,-0.1556001,0.08087136,-0.2570316,-0.411671,-0.08295221,0.8969011,11.05189,17.0563,-30.96177,990.0419
3.565020561,-0.03187994,-0.09680412,-0.01317903,-0.4072437,-0.08585502,0.8977428,11.05189,17.0563,-30.96177,990.0419
3.569937706,-0.03182103,-0.03751032,-0.1350259,-0.4111337,-0.08737989,0.8991824,11.42294,17.41977,-30.94973,990.0419
3.574854851,-0.155404,-0.09671982,-0.07400394,-0.4131456,-0.082469,0.8964432,11.42294,17.41977,-30.94973,990.0419
3.579772473,-0.09352425,-0.1558363,-0.07395744,-0.410124,-0.08550299,0.9036041,11.42294,17.41977,-30.94973,990.043
3.587148190,-0.1552182,-0.09656804,-0.1348632,-0.4082544,-0.0833905,0.895888,11.42294,17.41977,-30.94973,990.043
3.592065334,-0.0932998,0.02190282,-0.07382219,-0.4120889,-0.08646832,0.9021327,11.42294,17.41977,-30.94973,990.043
3.596982956,-0.03140091,0.02190767,-0.2565681,-0.4131019,-0.09026769,0.8961928,11.42294,17.41977,-30.94973,990.043
3.601900101,-0.1549841,-0.1557307,-0.07371034,-0.4101461,-0.08738918,0.9001451,11.42294,17.41977,-30.94973,990.043
3.606817246,-0.09300761,0.08116893,-0.1345629,-0.4091501,-0.0830752,0.9046451,11.42294,17.41977,-30.94973,990.043
3.611734867,-0.2783924,-0.09650678,-0.01266151,-0.4106834,-0.0829615,0.8978638,11.42294,17.41977,-30.94973,990.043
3.616652012,-0.03103107,0.1404859,0.04826444,-0.4110914,-0.08408587,0.9055997,11.42294,17.41977,-30.94973,990.043
3.621569157,-0.03093391,0.022006,-0.07364018,-0.4091777,-0.08398654,0.9012173,11.42776,16.68861,-31.03605,990.0456
3.626486778,-0.2163577,-0.09651119,-0.1345119,-0.4100976,-0.08603576,0.9060146,11.42776,16.68861,-31.03605,990.0456
3.631403923,0.03094523,-0.09641332,-0.07347114,-0.4083355,-0.08227057,0.8881561,11.42776,16.68861,-31.03605,990.0456
3.636321068,-0.154498,-0.0371384,0.04846845,-0.4115933,-0.08261898,0.9051652,11.42776,16.68861,-31.03605,990.0456
3.641238213,-0.03083687,-0.09634811,0.04845715,-0.4067946,-0.08288074,0.8954068,11.42776,16.68861,-31.03605,990.0456
3.646155834,-0.09258017,0.02212263,-0.1343081,-0.4086972,-0.08830538,0.8976762,11.42776,16.68861,-31.03605,990.0456
3.653531552,0.1546547,-0.0370568,-0.01236471,-0.4106463,-0.08206829,0.9022619,11.42776,16.68861,-31.03605,990.0456
3.658448696,-0.03078864,0.02216229,-0.01228036,-0.413125,-0.08781245,0.8953006,11.42776,16.68861,-31.03605,990.0456
3.663366318,0.03101279,0.1998102,-0.1340895,-0.4053215,-0.08143243,0.8968977,11.42776,16.68861,-31.03605,990.0466
3.668283463,-0.0925708,-0.03722881,-0.1340627,-0.4125981,-0.08788058,0.8991784,11.05661,17.04354,-30.57869,990.0466
3.673200607,-0.1542947,-0.09641988,-0.1948965,-0.4086961,-0.08348563,0.9007439,11.05661,17.04354,-30.57869,990.0466
3.678118229,-0.09241568,-0.0963593,-0.1338752,-0.4111623,-0.08394983,0.8983216,11.05661,17.04354,-30.57869,990.0466
3.683035374,-0.03061442,-0.03710302,-0.1337911,-0.4096769,-0.08300706,0.9007673,11.05661,17.04354,-30.57869,990.0466
3.687952519,0.03122575,-0.2147788,-0.01183274,-0.4116566,-0.08635506,0.8963064,11.05661,17.04354,-30.57869,990.0466
3.692870140,0.1548091,-0.09619656,-0.07270504,-0.4121362,-0.08637763,0.8972807,11.05661,17.04354,-30.57869,990.0466
3.697787285,-0.09241633,-0.03695893,-0.01172221,-0.4097242,-0.08291636,0.8959152,11.05661,17.04354,-30.57869,990.0466
3.702704430,-0.03055682,0.08154888,-0.1945071,-0.4149954,-0.08895917,0.9035333,11.05661,17.04354,-30.57869,990.0442
3.707621575,-0.0923197,-0.09616424,0.1102434,-0.4101956,-0.08440118,0.8968425,11.05661,17.04354,-30.57869,990.0442
3.712539196,0.1549248,-0.03690796,0.04925609,-0.4116528,-0.08202273,0.8993585,11.05661,17.04354,-30.57869,990.0442
3.717456341,-0.09237848,-0.09611779,0.04926341,-0.4087265,-0.08390956,0.8973318,11.04919,16.70453,-31.41995,990.0442
3.724832058,-0.03050936,-0.03688717,-0.01164358,-0.4072103,-0.08013299,0.9047235,11.04919,16.70453,-31.41995,990.0442
3.729749680,0.1548948,-0.1553115,-0.07253511,-0.4057342,-0.08254773,0.9041484,11.04919,16.70453,-31.41995,990.0442
3.734666825,0.03121396,-0.09599946,0.0493273,-0.4102036,-0.08631458,0.8948392,11.04919,16.70453,-31.41995,990.0442
3.739583969,-0.03064596,0.08175999,-0.07253968,-0.408226,-0.08344492,0.8987992,11.04919,16.70453,-31.41995,990.0425
3.744501591,-0.03062674,-0.03672025,0.04936102,-0.4091879,-0.08300263,0.9007634,11.04919,16.70453,-31.41995,990.0425
3.749418735,-0.09238956,-0.09594884,-0.07252514,-0.4048201,-0.0853092,0.8957983,11.04919,16.70453,-31.41995,990.0425
3.754335880,-0.03054945,0.02252168,-0.01150415,-0.413603,-0.08060538,0.9008765,11.04919,16.70453,-31.41995,990.0425
3.759254456,0.09309209,0.02252609,-0.1333712,-0.4097222,-0.08243802,0.8964161,11.04919,16.70453,-31.41995,990.0425
3.764170647,-0.09233196,-0.03675833,-0.01143227,-0.4081956,-0.08302099,0.9022112,11.04919,16.70453,-31.41995,990.0425
3.769087791,0.09314981,0.1409825,0.04955033,-0.4111474,-0.0849428,0.8992607,11.04639,17.07118,-31.40872,990.0425
3.774004936,-0.0305116,-0.0367494,0.1713935,-0.4091635,-0.08401375,0.9026729,11.04639,17.07118,-31.40872,990.0425
3.778922558,0.03130905,-0.03668905,-0.2552168,-0.4062559,-0.08923996,0.8966551,11.04639,17.07118,-31.40872,990.0425
3.783839703,-0.215897,0.08181864,-0.01138446,-0.4111257,-0.08546649,0.9011859,11.04639,17.07118,-31.40872,990.0417
3.788756847,0.09322651,0.08180451,-0.0113773,-0.4111743,-0.08681992,0.8953164,11.04639,17.07118,-31.40872,990.0417
3.796133041,-0.09212986,-0.2143818,0.04953225,-0.4146277,-0.0814893,0.8955157,11.04639,17.07118,-31.40872,990.0417
3.801050186,-0.03027053,0.08182485,-0.01139774,-0.4082031,-0.08252452,0.9017417,11.04639,17.07118,-31.40872,990.0417
3.805967331,-0.03023209,0.02255897,-0.07230857,-0.4120916,-0.08598091,0.9021483,11.04639,17.07118,-31.40872,990.0417
3.810884953,0.1552108,-0.09592126,0.04963026,-0.4087377,-0.08774541,0.8938102,11.04639,17.07118,-31.40872,990.0417
3.815802097,-0.03027176,-0.155094,-0.1331741,-0.4106556,-0.08542579,0.8992411,11.42575,17.05313,-30.96097,990.0417
3.820719242,-0.03027218,-0.1550152,0.0496636,-0.4086967,-0.08589551,0.89921,11.42575,17.05313,-30.96097,990.0411
3.825636864,-0.03027259,-0.09572213,-0.1330833,-0.409678,-0.08782682,0.8976995,11.42575,17.05313,-30.96097,990.0411
3.830554008,0.03156734,-0.03641037,-0.01120201,-0.4160453,-0.08449057,0.8988299,11.42575,17.05313,-30.96097,990.0411
3.835471153,-0.03027342,0.02284546,-0.01117582,-0.4071907,-0.0902962,0.9005132,11.42575,17.05313,-30.96097,990.0411
3.840388775,-0.09207527,-0.0955977,-0.07204852,-0.4106454,-0.0864097,0.8996951,11.42575,17.05313,-30.96097,990.0411
3.845305920,0.03152725,-0.03634188,-0.07202239,-0.4067451,-0.08586874,0.8987094,11.42575,17.05313,-30.96097,990.0411
3.850223064,-0.09209549,0.1413429,0.110796,-0.4121426,-0.08106138,0.8998789,11.42575,17.05313,-30.96097,990.0411
3.855140209,-0.03023615,0.08207688,-0.01112876,-0.4062021,-0.08548573,0.9045436,11.42575,17.05313,-30.96097,990.0411
3.860057831,0.1551872,-0.09561794,-0.07202061,-0.4092506,-0.08432885,0.8934383,11.42575,17.05313,-30.96097,990.04
3.867433548,-0.09214542,0.08205958,-0.07199105,-0.408184,-0.08593643,0.9016322,10.68275,17.04671,-30.57949,990.04
3.872350693,-0.09206813,0.2004555,-0.01100869,-0.409724,-0.08629201,0.8938649,10.68275,17.04671,-30.57949,990.04
3.877268314,0.03155384,-0.03658395,-0.1937749,-0.4096984,-0.08585902,0.8967918,10.68275,17.04671,-30.57949,990.04
3.882185459,0.03151458,-0.1549898,0.1109751,-0.4107098,-0.08242874,0.8954535,10.68275,17.04671,-30.57949,990.04
3.887102604,-0.09204991,-0.03650089,0.04998739,-0.4072897,-0.08432021,0.8939081,10.68275,17.04671,-30.57949,990.04
3.892020225,-0.03024889,-0.03644076,-0.1328171,-0.4116359,-0.08253735,0.9007984,10.68275,17.04671,-30.57949,990.04
3.896937370,0.09337302,0.1412626,0.05003943,-0.4101949,-0.08536695,0.8963261,10.68275,17.04671,-30.57949,990.04
3.901854515,-0.03028863,-0.03650654,-0.0108717,-0.4106794,-0.08200481,0.8988655,10.68275,17.04671,-30.57949,990.0367
3.906772137,-0.03028904,-0.1549869,0.1109903,-0.4115986,-0.08501978,0.9031463,10.68275,17.04671,-30.57949,990.0367
3.911691189,-0.09209089,0.02279099,-0.01087713,-0.4126984,-0.08334871,0.891556,10.68275,17.04671,-30.57949,990.0367
3.916605949,0.03147284,0.20042,-0.07180744,-0.4116155,-0.08450516,0.9017062,10.67725,17.06159,-31.02643,990.0367
3.921523571,0.03147248,-0.1550483,-0.0108826,-0.4145175,-0.08362943,0.9056424,10.67725,17.06159,-31.02643,990.0367
3.926441193,-0.03032931,0.02271109,-0.1936489,-0.4126551,-0.0843961,0.8954063,10.67725,17.06159,-31.02643,990.0367
3.931358337,-0.09213115,0.0226782,0.1110819,-0.4091981,-0.08201874,0.9003095,10.67725,17.06159,-31.02643,990.0367
3.936275482,0.03151027,-0.03655039,0.05013241,-0.4106408,-0.08304312,0.9022306,10.67725,17.06159,-31.02643,990.0367
3.941193104,-0.03031097,-0.03654598,0.1110763,-0.4126523,-0.08488352,0.8953907,10.67725,17.06159,-31.02643,990.0316
3.946109772,0.03150957,-0.03650439,-0.01082944,-0.4122163,-0.08043792,0.8926165,10.67725,17.06159,-31.02643,990.0316
3.953485489,-0.2156872,-0.03645139,-0.07179468,-0.409173,-0.08399561,0.9017025,10.67725,17.06159,-31.02643,990.0316
3.958403587,0.031596,0.02280455,-0.07171129,-0.4077626,-0.0838735,0.8958684,10.67725,17.06159,-31.02643,990.0316
3.963320732,-0.09196855,-0.03640562,-0.1325842,-0.4063098,-0.08045737,0.8964516,10.67725,17.06159,-31.02643,990.0316
3.968238831,-0.2155331,-0.2140632,-0.01064582,-0.4126105,-0.08399938,0.900274,10.68005,16.69494,-31.03767,990.0316
3.973154545,-0.03001271,0.08214344,-0.01060083,-0.4102202,-0.08001443,0.8969834,10.68005,16.69494,-31.03767,990.0316
3.978071690,0.0317688,-0.0956072,-0.1324876,-0.411669,-0.08247387,0.897402,10.68005,16.69494,-31.03767,990.0316
3.982989311,-0.02997497,-0.03629554,0.0503879,-0.4096837,-0.08347633,0.8997812,10.68005,16.69494,-31.03767,990.0309
3.987906456,-0.02999496,0.0821561,-0.01054261,-0.4072635,-0.08147734,0.8983688,10.68005,16.69494,-31.03767,990.0309
3.992823601,0.03182534,0.02285281,0.05036284,-0.4121113,-0.08497886,0.9007241,10.68005,16.69494,-31.03767,990.0309
3.997741699,0.1553889,0.1412859,-0.1324611,-0.4126884,-0.08095697,0.8940603,10.68005,16.69494,-31.03767,990.0309
4.002658367,0.03174657,0.08200138,-0.1933342,-0.4145896,-0.0849375,0.897347,10.68005,16.69494,-31.03767,990.0309
4.007575512,0.03172665,-0.09571207,0.05045926,-0.412122,-0.08640484,0.8987363,10.68005,16.69494,-31.03767,990.0309
4.012493134,-0.03005592,0.08199132,-0.01045216,-0.4092344,-0.08387771,0.8953949,10.68005,16.69494,-31.03767,990.0309
4.017410278,0.09354647,-0.0365262,-0.01044559,-0.4087392,-0.08581389,0.8948432,11.42496,17.05525,-31.02482,990.0309
4.022327423,0.09352649,0.08198138,-0.07139531,-0.4121764,-0.08003213,0.8969989,11.42496,17.05525,-31.02482,990.0275
4.029703617,-0.03002868,-0.09575784,-0.3150766,-0.4047713,-0.08733143,0.8996173,11.42496,17.05525,-31.02482,990.0275
4.034620762,0.09357371,-0.03646472,0.1116431,-0.4087023,-0.08154503,0.9012917,11.42496,17.05525,-31.02482,990.0275
4.039537907,0.03173289,-0.1548892,-0.1321565,-0.4076957,-0.08496623,0.9021448,11.42496,17.05525,-31.02482,990.0275
4.044455051,0.03171297,-0.09563331,-0.07107893,-0.4140769,-0.08497842,0.8997691,11.42496,17.05525,-31.02482,990.0275
4.049372673,0.09345568,0.02289281,0.05082087,-0.4096638,-0.08785403,0.8991551,11.42496,17.05525,-31.02482,990.0275
4.054289818,-0.09194921,-0.09555035,-0.1319842,-0.4091777,-0.08398654,0.9012173,11.42496,17.05525,-31.02482,990.0275
4.059206963,0.09349359,-0.1546675,0.05083354,-0.4145973,-0.08106537,0.8989278,11.42496,17.05525,-31.02482,990.0275
4.064124584,-0.0919307,-0.09531868,-0.1319907,-0.4086805,-0.08544436,0.9011665,11.05671,16.32513,-31.0481,990.0269
4.069045067,0.03169115,-0.03604443,-0.07100891,-0.4077516,-0.08582317,0.8958058,11.05671,16.32513,-31.0481,990.0269
4.073958874,-0.09189285,-0.154525,-0.1928194,-0.4135926,-0.08496492,0.89928,11.05671,16.32513,-31.0481,990.0269
4.078876495,-0.03007249,-0.03596181,-0.1317611,-0.4121126,-0.08642298,0.8997067,11.05671,16.32513,-31.0481,990.0269
4.083793640,0.1553314,-0.03595786,-0.07076038,-0.4106083,-0.08551648,0.9040932,11.05671,16.32513,-31.0481,990.0269
4.091169357,-0.1537058,-0.09519413,-0.07065543,-0.4101409,-0.08498836,0.9021642,11.05671,16.32513,-31.0481,990.0269
4.096086979,-0.09186602,-0.03590124,-0.1315482,-0.4111758,-0.08488838,0.8963495,11.05671,16.32513,-31.0481,990.0269
4.101004124,0.09357666,-0.09514893,-0.1314847,-0.4106712,-0.08346705,0.8988186,11.05671,16.32513,-31.0481,990.0278
4.105921268,-0.03006565,-0.03585615,-0.07042665,-0.4072675,-0.08243404,0.8973672,11.05671,16.32513,-31.0481,990.0278
4.110838890,0.03173531,-0.2134955,-0.009445273,-0.4106155,-0.08839565,0.9015733,11.05671,16.32513,-31.0481,990.0278
4.115756035,-0.09186815,-0.0949325,0.05151695,-0.4087434,-0.08339493,0.8958918,11.0511,17.05842,-31.02563,990.0278
4.120673180,0.03173425,0.08280762,-0.009433414,-0.4145735,-0.08448636,0.8993034,11.0511,17.05842,-31.02563,990.0278
4.125590324,-0.03008717,0.2011845,-0.07034547,-0.4131718,-0.08531187,0.8919824,11.0511,17.05842,-31.02563,990.0278
4.130507946,0.03175265,0.082685,-0.009306685,-0.4071934,-0.08064761,0.9061635,11.0511,17.05842,-31.02563,990.0278
4.135425091,-0.09185081,-0.0950288,-0.1311751,-0.4077335,-0.08489368,0.8982632,11.0511,17.05842,-31.02563,990.0278
4.140342236,-0.02999166,-0.1542208,-0.009199286,-0.4087687,-0.07804241,0.8965492,11.0511,17.05842,-31.02563,990.0278
4.145259857,0.03184804,0.02351948,0.05174363,-0.4130453,-0.08700087,0.9040656,11.0511,17.05842,-31.02563,990.0271
4.150177002,0.03182799,-0.03576562,-0.009225998,-0.4077437,-0.08390978,0.8978093,11.0511,17.05842,-31.02563,990.0271
4.155094147,-0.02993518,0.0826485,-0.07013819,-0.410172,-0.08444653,0.8992686,11.0511,17.05842,-31.02563,990.0271
4.160011768,0.03182681,-0.03579501,-0.1310696,-0.411223,-0.08479769,0.8914974,11.0511,17.05842,-31.02563,990.0271
4.167387486,0.03175801,0.1419936,-0.009129208,-0.4067885,-0.08482134,0.894859,11.05661,17.04354,-30.57869,990.0271
4.172304630,0.03171863,0.02353145,-0.07004146,-0.4135593,-0.08840406,0.9006261,11.05661,17.04354,-30.57869,990.0271
4.177222252,-0.03014159,-0.3910959,-0.1308963,-0.4091693,-0.08882444,0.89912,11.05661,17.04354,-30.57869,990.0271
4.182139397,-0.03010326,0.08288379,-0.1307949,-0.408232,-0.08487996,0.8972967,11.05661,17.04354,-30.57869,990.0298
4.187056541,-0.09186638,-0.09483012,0.1129592,-0.409662,-0.08400004,0.9017064,11.05661,17.04354,-30.57869,990.0298
4.191973686,0.09353746,-0.09475202,-0.1307837,-0.4121742,-0.08292942,0.8954494,11.05661,17.04354,-30.57869,990.0298
4.196891308,-0.03012419,0.02379218,0.05203325,-0.4145822,-0.08543399,0.8978165,11.05661,17.04354,-30.57869,990.0298
4.201808453,-0.03010527,-0.03543709,-0.1307726,-0.4121051,-0.08691946,0.9001762,11.05661,17.04354,-30.57869,990.0298
4.206725597,-0.03014459,0.1422284,0.05210188,-0.4116555,-0.0815353,0.8993741,11.05661,17.04354,-30.57869,990.0298
4.211643219,-0.2772733,-0.09470004,-0.1916986,-0.4087318,-0.08631037,0.8953127,11.05661,17.04354,-30.57869,990.0298
4.216560364,-0.1535544,-0.09465913,-0.06966555,-0.4043017,-0.08970061,0.8961388,11.42855,16.68648,-30.9722,990.0298
4.221477509,-0.1535356,0.1423138,-0.1306164,-0.4106632,-0.08155366,0.900822,11.42855,16.68648,-30.9722,990.0291
4.228853703,-0.09164771,0.08302099,-0.06967104,-0.4096849,-0.08492045,0.8987639,11.42855,16.68648,-30.9722,990.0291
4.233770847,-0.02976922,0.02375443,0.2350201,-0.4062718,-0.08390557,0.8982828,11.42855,16.68648,-30.9722,990.0291
4.238687992,-0.02975047,0.08293533,-0.2525098,-0.4115951,-0.08647297,0.9026141,11.42855,16.68648,-30.9722,990.0291
4.243605614,-0.1533153,-0.09481587,0.05227715,-0.4116051,-0.08886471,0.9001098,11.42855,16.68648,-30.9722,990.0291
4.248522759,-0.09141754,0.2013903,-0.06962997,-0.4072626,-0.08581875,0.895802,11.42855,16.68648,-30.9722,990.0291
4.253439903,-0.09137951,0.0828908,0.1741815,-0.4130961,-0.08545698,0.8997458,11.42855,16.68648,-30.9722,990.0291
4.258357048,-0.0295983,0.08285735,0.05221689,-0.4136075,-0.08397195,0.8983409,11.42855,16.68648,-30.9722,990.0291
4.263274670,-0.09142002,-0.03564221,-0.1306465,-0.4097175,-0.0824471,0.8969013,11.79882,17.05208,-31.02401,990.0302
4.268191814,-0.09140144,-0.2133189,0.1131842,-0.4092364,-0.08435605,0.894894,11.79882,17.05208,-31.02401,990.0302
4.273108959,-0.2149081,0.2013718,-0.06962178,-0.4126486,-0.08055118,0.8984427,11.79882,17.05208,-31.02401,990.0302
4.278026581,0.03235513,0.08285373,-0.06963547,-0.4062678,-0.08294887,0.8992845,11.79882,17.05208,-31.02401,990.0302
4.282943726,-0.09122935,-0.03566436,-0.008673711,-0.4110397,-0.08997116,0.9073527,11.79882,17.05208,-31.02401,990.0302
4.287860870,-0.1529541,0.08286142,-0.008649091,-0.4096584,-0.08882886,0.8991238,11.79882,17.05208,-31.02401,990.0302
4.295239449,-0.02928471,0.02364334,-0.06955896,-0.4086581,-0.08693383,0.9025752,11.79882,17.05208,-31.02401,990.0302
4.300154209,-0.02928571,-0.09483758,-0.008635576,-0.4082066,-0.08107132,0.9022738,11.79882,17.05208,-31.02401,990.0302
4.305071354,-0.1528509,-0.3317288,0.1132059,-0.4067048,-0.08305307,0.9046257,11.79882,17.05208,-31.02401,990.0267
4.309988976,-0.02919067,-0.1538399,-0.06960009,-0.4077502,-0.0877547,0.8947729,11.79882,17.05208,-31.02401,990.0267
4.314906120,-0.02907523,0.0831331,-0.00861924,-0.408711,-0.08249266,0.8998048,11.42216,17.4219,-31.01358,990.0267
4.319823265,-0.09083905,-0.09458103,-0.06951267,-0.4120944,-0.08549348,0.902164,11.42216,17.4219,-31.01358,990.0267
4.324740410,-0.09080138,-0.03530724,-0.130387,-0.4130812,-0.08644997,0.9006848,11.42216,17.4219,-31.01358,990.0267
4.329658032,-0.1525653,0.02396656,-0.008469055,-0.4087294,-0.0800465,0.8993979,11.42216,17.4219,-31.01358,990.0267
4.334575176,-0.09066796,-0.2129434,-0.1302806,-0.4097026,-0.08344007,0.8978404,11.42216,17.4219,-31.01358,990.0267
4.339498520,-0.1524125,-0.1535952,0.05255528,-0.4140764,-0.08256854,0.901303,11.42216,17.4219,-31.01358,990.0267
4.344409943,-0.02873322,-0.1535545,-0.06929461,-0.4110961,-0.0840768,0.9051144,11.42216,17.4219,-31.01358,990.0256
4.349327087,-0.09045842,-0.09424369,-0.1301691,-0.4116737,-0.0824648,0.8969167,11.42216,17.4219,-31.01358,990.0256
4.354244232,-0.1521642,-0.1534361,-0.00817473,-0.4087738,-0.08381886,0.8924798,11.42216,17.4219,-31.01358,990.0256
4.359161854,-0.02848513,-0.09412525,-0.008188711,-0.4126589,-0.08872844,0.8923542,11.42216,17.4219,-31.01358,990.0256
4.366537571,-0.0902598,0.2612686,-0.1299978,-0.409211,-0.08054741,0.8998713,11.0511,17.05842,-31.02563,990.0256
4.371454716,-0.02840165,-0.09416345,-0.2517905,-0.4076543,-0.08649198,0.9054943,11.0511,17.05842,-31.02563,990.0256
4.376372337,-0.09018528,0.02432447,-0.007979464,-0.407768,-0.08289866,0.8958997,11.0511,17.05842,-31.02563,990.0256
4.381289482,-0.09012862,-0.1534271,-0.2516464,-0.4106927,-0.08631901,0.894843,11.0511,17.05842,-31.02563,990.0256
4.386206627,-0.02827053,0.1428345,-0.007778064,-0.4111899,-0.08486117,0.8948939,11.0511,17.05842,-31.02563,990.0267
4.391124249,-0.09005421,-0.09409428,-0.00777318,-0.4087345,-0.08582295,0.8953284,11.0511,17.05842,-31.02563,990.0267
4.396041393,0.03358585,-0.1532496,-0.1296043,-0.4136041,-0.08542514,0.8978088,11.0511,17.05842,-31.02563,990.0267
4.400958538,-0.08999933,0.02450857,-0.06858571,-0.4053342,-0.08333676,0.8944091,11.0511,17.05842,-31.02563,990.0267
4.405875683,-0.2135652,-0.09397291,-0.06856179,-0.4101322,-0.08404074,0.9036511,11.0511,17.05842,-31.02563,990.0267
4.410793305,0.03377487,-0.2123427,-0.06846128,-0.4150565,-0.08305573,0.9008099,11.42496,17.05525,-31.02482,990.0267
4.415710449,-0.02804779,0.02468555,-0.007519432,-0.4116369,-0.0873571,0.8977307,11.42496,17.05525,-31.02482,990.0267
4.420627594,-0.1516525,-0.03448857,-0.007533878,-0.4146242,-0.08294248,0.8949836,11.42496,17.05525,-31.02482,990.0267
4.428003788,-0.275132,-0.2120993,0.05339123,-0.4097386,-0.07951352,0.89651,11.42496,17.05525,-31.02482,990.0276
4.432920933,0.0340482,-0.03434142,-0.1294155,-0.407708,-0.08108504,0.9032404,11.42496,17.05525,-31.02482,990.0276
4.437838078,0.09586708,-0.0343013,-0.1293533,-0.413115,-0.08542071,0.8978049,11.42496,17.05525,-31.02482,990.0276
4.442755699,-0.02775725,-0.09351283,-0.06837318,-0.4072202,-0.08252473,0.9022192,11.42496,17.05525,-31.02482,990.0276
4.447672844,-0.08956075,-0.15265,-0.007469642,-0.4067068,-0.08353141,0.9041249,11.42496,17.05525,-31.02482,990.0276
4.452589989,0.09589992,0.02518224,0.1144285,-0.4131325,-0.08731597,0.8948311,11.42496,17.05525,-31.02482,990.0276
4.457507610,0.09587852,-0.09329969,-0.06843567,-0.4116148,-0.08547091,0.9011897,11.42496,17.05525,-31.02482,990.0276
4.462424755,-0.02782352,-0.09316667,-0.00751298,-0.4106575,-0.08590414,0.8987404,11.80993,16.30391,-30.59954,990.0243
4.467341900,0.03401488,0.08455379,0.05342887,-0.4151257,-0.07906571,0.896083,11.80993,16.30391,-30.59954,990.0243
4.472259045,-0.02782741,-0.09316124,-0.06845985,-0.4101762,-0.08202759,0.9003173,11.80993,16.30391,-30.59954,990.0243
4.477176666,-0.08963079,-0.09308405,-0.129354,-0.4097068,-0.08102112,0.8988891,11.80993,16.30391,-30.59954,990.0243
4.482093811,-0.1514342,0.08463629,0.1144184,-0.4077924,-0.08188756,0.8939902,11.80993,16.30391,-30.59954,990.0243
4.487010956,0.15761,-0.09304145,-0.06840742,-0.4130996,-0.08400381,0.9002779,11.80993,16.30391,-30.59954,990.0243
4.491928578,-0.08959777,-0.03374991,-0.1292633,-0.4111805,-0.08487931,0.8958642,11.80993,16.30391,-30.59954,990.0243
4.499304295,-0.08962984,-0.09300698,-0.06826179,-0.4092208,-0.0863148,0.8953166,11.80993,16.30391,-30.59954,990.0243
4.504221439,0.03408764,-0.1522747,0.1755105,-0.4086941,-0.08300728,0.9012448,11.80993,16.30391,-30.59954,990.0253
4.509139061,0.03404684,-0.1521604,-0.06829089,-0.4125834,-0.08549791,0.9021679,11.80993,16.30391,-30.59954,990.0253
4.514056206,-0.0277372,0.08483011,-0.007310853,-0.4107476,-0.08235618,0.8915718,10.67725,17.06159,-31.02643,990.0253
4.518973351,0.09586372,0.02554377,-0.1291997,-0.4111014,-0.08647761,0.9030954,10.67725,17.06159,-31.02643,990.0253
4.523890972,-0.1513635,0.02552772,-0.06820053,-0.4106794,-0.08200481,0.8988655,10.67725,17.06159,-31.02643,990.0253
4.528808117,0.03409713,-0.03368414,0.2365089,-0.4102229,-0.07952701,0.8969991,10.67725,17.06159,-31.02643,990.0253
4.533725262,-0.02770631,-0.152129,-0.1292243,-0.4126212,-0.08542535,0.8982862,10.67725,17.06159,-31.02643,990.0253
4.538642407,0.03407373,-0.0335674,0.05363004,-0.4077205,-0.08636501,0.8987014,10.67725,17.06159,-31.02643,990.0253
4.543560028,0.03403293,0.08488255,0.1754323,-0.4121824,-0.08146717,0.8954964,10.67725,17.06159,-31.02643,990.028
4.548477173,-0.02775112,-0.03359972,-0.007470136,-0.4091538,-0.08740754,0.901593,10.67725,17.06159,-31.02643,990.028
4.555853367,-0.08952649,-0.1520341,0.1144112,-0.4043496,-0.07948297,0.8974378,10.67725,17.06159,-31.02643,990.028
4.560770512,0.03411328,0.02572324,-0.007496674,-0.4131401,-0.08344384,0.8964119,11.0483,17.42507,-31.01439,990.028
4.565687657,-0.02770961,-0.09277757,-0.06844825,-0.408671,-0.0854625,0.9021369,11.0483,17.42507,-31.01439,990.028
4.570604801,0.09591077,-0.03348625,-0.007468102,-0.410713,-0.08435119,0.8939352,11.0483,17.42507,-31.01439,990.028
4.575522423,0.03408787,-0.1519127,-0.1902557,-0.4111712,-0.08152181,0.8988851,11.0483,17.42507,-31.01439,990.028
4.580439568,0.03414412,-0.09258431,-0.007362998,-0.4072492,-0.08488019,0.8977741,11.0483,17.42507,-31.01439,990.028
4.585356712,-0.1512818,0.02593989,-0.1292135,-0.4101546,-0.08255129,0.9022424,11.0483,17.42507,-31.01439,990.0289
4.590274334,-0.02760319,-0.09254249,0.0536791,-0.4087618,-0.08094878,0.8954849,11.0483,17.42507,-31.01439,990.0289
4.595191956,-0.02756641,-0.09248441,-0.007291757,-0.4111914,-0.08292964,0.8959268,11.0483,17.42507,-31.01439,990.0289
4.600109577,0.09595682,-0.09244496,-0.06820518,-0.4071571,-0.0879498,0.9054435,11.0483,17.42507,-31.01439,990.0289
4.605026722,-0.08944961,-0.09236823,0.11463,-0.4082909,-0.08187385,0.8930237,11.0483,17.42507,-31.01439,990.0289
4.609943867,-0.02757254,-0.03309579,0.05362079,-0.4102,-0.07860659,0.8999416,11.0511,17.05842,-31.02563,990.0289
4.614861012,-0.0275746,0.1445683,-0.06822973,-0.4155245,-0.08599375,0.9012051,11.0511,17.05842,-31.02563,990.0289
4.619777680,0.2196097,0.02606725,0.05366828,-0.4076911,-0.08159967,0.9046804,11.0511,17.05842,-31.02563,990.0289
4.627154350,0.03407602,-0.09249774,0.05361771,-0.4116493,-0.0834759,0.8988263,11.0511,17.05842,-31.02563,990.0255
4.632071972,0.03405456,0.02600781,-0.1291891,-0.4121951,-0.08337149,0.8930077,11.0511,17.05842,-31.02563,990.0255
4.636989117,-0.02774888,-0.1516517,-0.0682091,-0.4155501,-0.08642675,0.8982782,11.0511,17.05842,-31.02563,990.0255
4.641906262,-0.08949406,0.0853198,-0.06818541,-0.4033382,-0.08291325,0.8987762,11.0511,17.05842,-31.02563,990.0255
4.646823406,-0.02765584,0.02607042,-0.1290414,-0.4107185,-0.08337636,0.8939665,11.0511,17.05842,-31.02563,990.0255
4.651741028,-0.1512414,0.0260355,-0.1289986,-0.4097228,-0.0848479,0.8948823,11.0511,17.05842,-31.02563,990.0255
4.656658173,-0.08934496,-0.03315806,-0.007062482,-0.409731,-0.08338565,0.8949292,11.0511,17.05842,-31.02563,990.0255
4.661575318,-0.08932769,0.08531019,-0.06797605,-0.4067264,-0.08252937,0.9027005,11.80432,17.0372,-30.57707,990.0255
4.666492939,-0.08923271,0.02606081,-0.06793335,-0.4096227,-0.08600412,0.9045551,11.80432,17.0372,-30.57707,990.0266
4.671413899,-0.08911839,-0.03318857,-0.06787153,-0.4101332,-0.0888605,0.9005833,11.80432,17.0372,-30.57707,990.0266
4.676327229,-0.02731914,-0.03316778,-0.006891718,-0.411171,-0.08489745,0.8968347,11.80432,17.0372,-30.57707,990.0266
4.681244850,-0.02732138,0.02608601,-0.1896605,-0.4146071,-0.08683276,0.8943731,11.80432,17.0372,-30.57707,990.0266
4.686161995,-0.08910566,-0.03312619,-0.006768245,-0.4092257,-0.08293008,0.8968818,11.80432,17.0372,-30.57707,990.0266
4.691079140,0.03453382,-0.09233839,-0.06770114,-0.4101996,-0.08535787,0.8958408,11.80432,17.0372,-30.57707,990.0266
4.698455334,-0.1508837,-0.03298108,-0.06756081,-0.408165,-0.08597271,0.903573,11.80432,17.0372,-30.57707,990.0266
4.703372479,-0.02720541,0.02625406,-0.06751837,-0.4067675,-0.08437927,0.8973007,11.80432,17.0372,-30.57707,990.0258
4.708289623,0.03459378,-0.1514057,0.05443659,-0.4130854,-0.08403102,0.9017335,11.05661,17.04354,-30.57869,990.0258
4.713206768,-0.08903084,-0.03286321,0.05438326,-0.4092297,-0.08388677,0.89588,11.05661,17.04354,-30.57869,990.0258
4.718124390,-0.02717346,0.08560494,0.1762617,-0.408721,-0.08488439,0.8973005,11.05661,17.04354,-30.57869,990.0258
4.723041535,0.09644657,-0.03291485,0.05433407,-0.4145829,-0.08446822,0.898333,11.05661,17.04354,-30.57869,990.0258
4.727958679,-0.08901846,0.02630164,-0.1284732,-0.4135747,-0.0806598,0.9037877,11.05661,17.04354,-30.57869,990.0258
4.732876301,0.03458217,0.02630379,-0.1284117,-0.4092459,-0.08433791,0.8939236,11.05661,17.04354,-30.57869,990.0258
4.737793446,0.1581634,0.02634312,0.05444214,-0.4125907,-0.08837707,0.899648,11.05661,17.04354,-30.57869,990.0258
4.742710590,0.03449992,-0.1513167,-0.00654833,-0.4082051,-0.08300285,0.9012409,11.05661,17.04354,-30.57869,990.0247
4.747628212,0.09631857,-0.2696691,0.1153301,-0.4101665,-0.08542136,0.8992373,11.05661,17.04354,-30.57869,990.0247
4.752545357,0.09625808,-0.1511453,0.0543396,-0.4106645,-0.08299777,0.8998047,11.05661,17.04354,-30.57869,990.0247
4.757462501,0.09623645,0.08584452,0.05432463,-0.4096897,-0.08491138,0.8982787,11.05661,17.04354,-30.57869,990.0247
4.762379646,0.2197983,-0.09192702,-0.1284635,-0.4086912,-0.08687034,0.8991787,11.0511,17.05842,-31.02563,990.0247
4.769755840,0.03428391,-0.2103623,0.1153295,-0.4096951,-0.08393655,0.8983099,11.0511,17.05842,-31.02563,990.0247
4.774672985,0.03424293,-0.03254959,-0.1284723,-0.4102531,-0.08332659,0.8915366,11.0511,17.05842,-31.02563,990.0247
4.779590130,-0.02756063,0.02670386,-0.006517345,-0.4141169,-0.08200857,0.897437,11.0511,17.05842,-31.02563,990.0247
4.784507751,0.03421935,0.08590148,-0.1284067,-0.4101625,-0.08446467,0.900239,11.0511,17.05842,-31.02563,990.0258
4.789424896,0.09597987,-0.03263718,0.1153843,-0.4106585,-0.08156273,0.9013072,11.0511,17.05842,-31.02563,990.0258
4.794342041,-0.2130489,0.08583073,0.05437462,-0.4091784,-0.08302078,0.9017338,11.0511,17.05842,-31.02563,990.0258
4.799259663,-0.1511913,0.02658101,0.0543979,-0.4072546,-0.08390535,0.8978054,11.0511,17.05842,-31.02563,990.0258
4.804176807,-0.02755161,-0.1511348,-0.06751055,-0.4110748,-0.09038603,0.9034553,11.0511,17.05842,-31.02563,990.0258
4.809093952,-0.08931637,-0.09186272,-0.006530977,-0.4121409,-0.08636856,0.8967955,10.67253,17.07435,-31.40952,990.0258
4.814011574,0.03432329,-0.0917306,0.1153283,-0.4087967,-0.08473928,0.8895373,10.67253,17.07435,-31.40952,990.0258
4.818928719,-0.02751912,-0.1509431,0.1152941,-0.4116299,-0.0811023,0.902301,10.67253,17.07435,-31.40952,990.0258
4.823845863,-0.08928388,-0.09165251,-0.0675132,-0.4135737,-0.0850012,0.9012209,10.67253,17.07435,-31.40952,990.018
4.828763008,0.03433632,0.02688965,-0.1893259,-0.410168,-0.08348984,0.9002703,10.67253,17.07435,-31.40952,990.018
4.833680630,0.09615503,-0.1508078,-0.06735185,-0.4121735,-0.08389519,0.8949329,10.67253,17.07435,-31.40952,990.018
4.841056347,0.03436002,-0.03221812,-0.1282255,-0.4097018,-0.08440582,0.8973239,10.67253,17.07435,-31.40952,990.018
4.845973968,-0.1510466,0.08628675,-0.006289844,-0.4101571,-0.0854395,0.9002077,10.67253,17.07435,-31.40952,990.018
4.850891113,0.0344527,-0.09146661,-0.06714647,-0.4121051,-0.08691946,0.9001762,10.67253,17.07435,-31.40952,990.018
4.855808258,0.09625195,0.08625273,-0.06708514,-0.4086692,-0.08160852,0.9046882,10.67253,17.07435,-31.40952,990.018
4.860725403,-0.02741147,-0.1506963,0.1157493,-0.4062603,-0.08344536,0.8997542,11.80162,16.68544,-31.03525,990.018
4.865643024,-0.08921508,0.2047035,-0.1280337,-0.4086859,-0.08446953,0.9011978,11.80162,16.68544,-31.03525,990.019
4.870560169,-0.02731873,-0.03230142,-0.006117278,-0.4159944,-0.0894101,0.9010994,11.80162,16.68544,-31.03525,990.019
4.875477314,-0.08904476,-0.09149554,-0.006075132,-0.4087063,-0.08250173,0.90029,11.80162,16.68544,-31.03525,990.019
4.880394936,-0.08904705,-0.03220502,0.054885,-0.4091748,-0.0878496,0.8991513,11.80162,16.68544,-31.03525,990.019
4.885312080,0.03468947,0.02706686,-0.06702375,-0.4106976,-0.08293429,0.8964082,11.80162,16.68544,-31.03525,990.019
4.890229225,-0.08887702,-0.09132319,-0.06698167,-0.4130939,-0.08835429,0.8981962,11.80162,16.68544,-31.03525,990.019
4.895146847,-0.08889884,-0.03205143,-0.1278576,-0.4072924,-0.08383279,0.8939238,11.80162,16.68544,-31.03525,990.019
4.900063992,-0.1506444,-0.03199402,-0.06689757,-0.4091515,-0.08114366,0.905678,11.80162,16.68544,-31.03525,990.019
4.904981136,-0.1505692,-0.03193672,0.1159559,-0.4097506,-0.08238361,0.8935049,11.80162,16.68544,-31.03525,990.02
4.909898281,-0.08877025,-0.03199108,-0.005952995,-0.4120991,-0.08548442,0.9016788,11.0511,17.05842,-31.02563,990.02
4.917274475,0.158461,-0.03197955,-0.1887014,-0.4097486,-0.08190526,0.8940057,11.0511,17.05842,-31.02563,990.02
4.922191620,-0.08878617,0.02729221,-0.005809699,-0.4121489,-0.08828195,0.8947921,11.0511,17.05842,-31.02563,990.02
4.927108765,0.09667403,-0.09113525,-0.06676233,-0.4101429,-0.08546671,0.9016633,11.0511,17.05842,-31.02563,990.02
4.932026386,0.03485066,0.1457983,0.05515392,-0.4072262,-0.08395977,0.9007166,11.0511,17.05842,-31.02563,990.02
4.936943531,-0.0887742,0.204977,-0.06673585,-0.410168,-0.08348984,0.9002703,11.0511,17.05842,-31.02563,990.02
4.941860676,0.0348845,-0.09129833,-0.06669394,-0.404315,-0.081478,0.8998013,11.0511,17.05842,-31.02563,990.02
4.946778297,-0.08874036,-0.03198927,-0.12757,-0.4116588,-0.08345777,0.8978559,11.0511,17.05842,-31.02563,990.0226
4.951695442,-0.08872344,-0.1503794,-0.2494025,-0.4111777,-0.08536673,0.8958486,11.0511,17.05842,-31.02563,990.0226
4.956612587,-0.02688569,-0.209518,-0.06647266,-0.4067006,-0.08547201,0.903577,10.31361,17.03712,-30.19721,990.0226
4.961530209,-0.02684937,-0.03172448,0.05546251,-0.4087258,-0.08487532,0.8968153,10.31361,17.03712,-30.19721,990.0226
4.966447353,-0.08861461,-0.1501892,-0.1273646,-0.4081922,-0.08447418,0.9016791,10.31361,17.03712,-30.19721,990.0226
4.971364498,0.09680662,0.08680005,-0.005448609,-0.4072581,-0.08245218,0.8983375,10.31361,17.03712,-30.19721,990.0226
4.976281643,0.3439712,0.02749394,-0.1273195,-0.4111488,-0.08301127,0.9002937,10.31361,17.03712,-30.19721,990.0226
4.983657837,0.0348338,0.08675688,-0.06639633,-0.4087212,-0.08150875,0.8993509,10.31361,17.03712,-30.19721,990.0237
4.988574982,-0.1505342,-0.1501925,-0.06633549,-0.4131219,-0.08251435,0.8988692,10.31361,17.03712,-30.19721,990.0237
4.993492126,-0.08867704,-0.09088368,-0.005375827,-0.4116262,-0.08593114,0.8997185,10.31361,17.03712,-30.19721,990.0237
4.998409748,-0.1504228,-0.0908265,0.05558383,-0.4130834,-0.08355267,0.9022343,10.31361,17.03712,-30.19721,990.0237
5.003326893,0.03507617,0.02765939,0.05556805,-0.4096397,-0.0854895,0.9031151,10.31361,17.03712,-30.19721,990.0237
5.008244038,0.03505412,-0.1500571,-0.005423118,-0.4165799,-0.08055031,0.8965329,11.80152,17.40384,-30.56583,990.0237
5.013161659,0.09685302,0.1461465,0.1163971,-0.4081967,-0.08784075,0.8991436,11.80152,17.40384,-30.56583,990.0237
5.018078804,-0.0267719,0.08689611,-0.005492848,-0.410655,-0.08301591,0.900775,11.80152,17.40384,-30.56583,990.0237
5.022995949,-0.08855654,-0.09087611,-0.127402,-0.4164822,-0.08797041,0.9021206,11.80152,17.40384,-30.56583,990.0237
5.027913570,0.09686469,-0.09078186,-0.005466805,-0.4102113,-0.08244245,0.89642,11.80152,17.40384,-30.56583,990.0247
5.032830715,0.03506061,-0.1499951,-0.005482529,-0.4106055,-0.08600391,0.9040776,11.80152,17.40384,-30.56583,990.0247
5.040206432,-0.1503574,0.08692945,-0.1882505,-0.4097018,-0.08440582,0.8973239,11.80152,17.40384,-30.56583,990.0247
5.045124054,0.09690402,0.1461265,0.05552059,-0.416067,-0.08396687,0.8969046,11.80152,17.40384,-30.56583,990.0247
5.050041199,-0.08858071,0.02762447,-0.06633116,-0.4071755,-0.08550365,0.9050364,11.80152,17.40384,-30.56583,990.0247
5.054958344,0.03503903,-0.09084029,0.05546993,-0.4082382,-0.08293937,0.8978444,11.80152,17.40384,-30.56583,990.0247
5.059875488,-0.08860535,0.08693442,-0.1273189,-0.4106697,-0.08539858,0.8977855,11.42216,17.4219,-31.01358,990.0247
5.064793110,0.1586562,0.02768402,-0.005422043,-0.411184,-0.08342613,0.8963964,11.42216,17.4219,-31.01358,990.024
5.069710255,0.034973,0.08686244,0.05551852,-0.4112197,-0.08287522,0.8930156,11.42216,17.4219,-31.01358,990.024
5.074627399,-0.08869072,0.08680796,-0.1272512,-0.4082524,-0.08291216,0.8963888,11.42216,17.4219,-31.01358,990.024
5.079545021,0.09673057,-0.1501601,0.1774762,-0.4111561,-0.08589043,0.8977738,11.42216,17.4219,-31.01358,990.024
5.084462166,-0.0268749,0.0275961,0.05554779,-0.4106155,-0.08839565,0.9015733,11.42216,17.4219,-31.01358,990.024
5.089384556,0.09674489,0.02759734,-0.005405126,-0.4126998,-0.08141718,0.892589,11.42216,17.4219,-31.01358,990.024
5.094296932,-0.150483,-0.1501749,-0.06635801,-0.4106593,-0.08059697,0.9018237,11.42216,17.4219,-31.01358,990.024
5.099214077,0.09677862,-0.1501549,-0.00541745,-0.4130839,-0.08596255,0.9007004,11.42216,17.4219,-31.01358,990.024
5.104131222,0.09673723,0.1460674,-0.00541402,-0.4102131,-0.08629644,0.8938687,11.42216,17.4219,-31.01358,990.0233
5.111507416,-0.02684035,-0.09094652,0.05556648,-0.4125334,-0.08607603,0.9070042,11.0483,17.42507,-31.01439,990.0233
5.116424561,0.09677944,0.1460241,0.05556985,-0.4092366,-0.08098041,0.8969443,11.0483,17.42507,-31.01439,990.0233
5.121341705,0.03487831,-0.0317481,-0.06628189,-0.4101548,-0.07917564,0.9042928,11.0483,17.42507,-31.01439,990.0233
5.126259327,-0.0269256,-0.2094087,-0.06627852,-0.4125986,-0.0811293,0.9032792,11.0483,17.42507,-31.01439,990.0233
5.131176472,-0.02692808,-0.09084819,0.05561828,-0.4135437,-0.0903628,0.9010487,11.0483,17.42507,-31.01439,990.0233
5.136093617,-0.2123156,0.1461224,-0.06631009,-0.4111772,-0.08295685,0.8973825,11.0483,17.42507,-31.01439,990.0233
5.141010761,0.2203504,0.08685339,0.05560587,-0.408188,-0.08689313,0.9006305,11.0483,17.42507,-31.01439,990.0233
5.145928383,0.03488527,-0.2093478,0.2384207,-0.4092643,-0.08189177,0.8935166,11.0483,17.42507,-31.01439,990.0215
5.150845528,0.03488279,-0.1500577,0.05551689,-0.4120702,-0.08312895,0.9061239,11.0483,17.42507,-31.01439,990.0215
5.155762672,-0.1505241,0.02773567,-0.06635398,-0.4097459,-0.08239268,0.8939901,11.0511,17.05842,-31.02563,990.0215
5.160680294,0.03489717,-0.09071065,-0.005375159,-0.4126374,-0.08587649,0.8963298,11.0511,17.05842,-31.02563,990.0215
5.165597439,0.03489464,-0.03143935,-0.1272461,-0.412112,-0.08401309,0.9012406,11.0511,17.05842,-31.02563,990.0215
5.172973156,-0.08872173,-0.09079169,-0.00536673,-0.4146573,-0.08287899,0.8915871,11.0511,17.05842,-31.02563,990.0215
5.177890778,-0.08870481,-0.03152015,-0.06628134,-0.4101543,-0.08592693,0.9001921,11.0511,17.05842,-31.02563,990.0215
5.182807922,-0.212252,-0.2091808,-0.06622057,-0.4131265,-0.08588092,0.8963336,11.0511,17.05842,-31.02563,990.0215
5.187725067,-0.08851574,0.02790124,-0.06615981,-0.4086981,-0.08396398,0.900243,11.0511,17.05842,-31.02563,990.0222
5.192642689,-0.150281,0.1462939,0.05571774,-0.4140433,-0.08263204,0.9046994,11.0511,17.05842,-31.02563,990.0222
5.197559834,-0.0884046,-0.09067438,0.116639,-0.4155921,-0.08393524,0.8954452,11.0511,17.05842,-31.02563,990.0222
5.202476978,-0.08836846,0.08706304,-0.005251075,-0.4082265,-0.08585481,0.8972654,11.0511,17.05842,-31.02563,990.0222
5.207394123,-0.1501339,-0.2091381,0.05572763,-0.4116859,-0.08195924,0.895962,11.42766,17.40701,-30.56664,990.0222
5.212311745,-0.2736813,-0.03136352,0.05569263,-0.4122021,-0.08046513,0.8940721,11.42766,17.40701,-30.56664,990.0222
5.217228890,-0.08812438,-0.03138103,-0.3098887,-0.4111359,-0.08448259,0.9007319,11.42766,17.40701,-30.56664,990.0222
5.222146034,-0.08808842,-0.03136137,-0.005046536,-0.4096906,-0.08056998,0.9008455,11.42766,17.40701,-30.56664,990.0222
5.227063656,-0.1498345,-0.03136035,-0.005081648,-0.4096794,-0.08589529,0.8987326,11.42766,17.40701,-30.56664,990.0232
5.231980801,0.0974654,-0.03132204,0.1777521,-0.4078017,-0.08524506,0.8909695,11.42766,17.40701,-30.56664,990.0232
5.236897945,-0.08800022,-0.03132103,-0.005190123,-0.4121733,-0.08727084,0.8928825,11.42766,17.40701,-30.56664,990.0232
5.244274139,0.03568561,-0.03129153,0.05577105,-0.4121419,-0.08202715,0.8993623,11.42766,17.40701,-30.56664,990.0232
5.249191284,-0.08793972,-0.03127186,-0.00512455,-0.4110508,-0.08464584,0.9094657,11.42766,17.40701,-30.56664,990.0232
5.254108429,-0.211468,0.08725098,0.05581581,-0.4121481,-0.08008654,0.8999102,11.0483,17.42507,-31.01439,990.0232
5.259026051,-0.02600841,0.0279817,-0.06605526,-0.4121257,-0.081576,0.9013188,11.0483,17.42507,-31.01439,990.0232
5.263943195,-0.08781297,-0.09052046,-0.1269892,-0.4111772,-0.08295685,0.8973825,11.0483,17.42507,-31.01439,990.0232
5.268860340,0.03582575,-0.0312305,-0.005054268,-0.4037832,-0.08493084,0.9021138,11.0483,17.42507,-31.01439,990.0225
5.273777485,-0.02599821,0.02800351,-0.005012819,-0.4071877,-0.08499809,0.9040818,11.0483,17.42507,-31.01439,990.0225
5.278695107,-0.02596248,0.02798588,-0.005067086,-0.4096571,-0.08738475,0.9001412,11.0483,17.42507,-31.01439,990.0225
5.283612251,0.03585529,-0.09047909,0.1168869,-0.4121668,-0.08342591,0.8959189,11.0483,17.42507,-31.01439,990.0225
5.288529396,0.03583277,-0.2089069,-0.06595963,-0.4087218,-0.08391863,0.897817,11.0483,17.42507,-31.01439,990.0225
5.293447018,-0.0259524,0.02811924,-0.005019359,-0.4130921,-0.08450029,0.9007474,11.0483,17.42507,-31.01439,990.0225
5.298364163,-0.1494807,-0.03111274,-0.1878276,-0.4116722,-0.08439632,0.8958837,11.0483,17.42507,-31.01439,990.0225
5.303281307,-0.08766304,-0.03107466,-0.1268491,-0.4061852,-0.08600035,0.9059836,11.42776,16.68861,-31.03605,990.0225
5.308199406,0.03599495,0.1466625,-0.004914256,-0.4151436,-0.08337084,0.8915753,11.42776,16.68861,-31.03605,990.0175
